Folder: GFET-covid-flu/Akinwande-lab-measurements/raman/data/Raman 25-12-17 wafer-2

File: gr-baseline-1.txt
2999.69	144.327
2993.45	90.1431
2987.2	118.087
2980.96	123.986
2974.7	135.868
2968.44	131.76
2962.18	105.717
2955.91	147.479
2949.63	127.44
2943.35	139.269
2937.07	117.283
2930.77	111.225
2924.48	182.57
2918.18	87.2415
2911.87	126.788
2905.56	95.0099
2899.24	191.835
2892.91	132.391
2886.58	88.8432
2880.25	76.9315
2873.91	147.818
2867.56	124.061
2861.21	100.344
2854.86	125.814
2848.49	115.885
2842.13	135.411
2835.75	101.961
2829.38	101.874
2822.99	97.8712
2816.6	162.327
2810.21	115.29
2803.81	136.667
2797.4	122.894
2790.99	157.871
2784.57	109.051
2778.15	128.414
2771.72	165.239
2765.29	101
2758.85	180.48
2752.41	135.728
2745.96	96.8649
2739.5	125.816
2733.04	145.047
2726.57	142.989
2720.1	142.866
2713.62	273.911
2707.14	238.983
2700.65	369.718
2694.16	432.889
2687.66	501.717
2681.15	491.68
2674.64	408.739
2668.12	343.197
2661.6	227.961
2655.07	208.624
2648.53	174.021
2641.99	116.55
2635.45	108.813
2628.9	131.607
2622.34	91.4733
2615.78	144.707
2609.21	106.534
2602.63	96.9373
2596.06	75.9632
2589.47	96.7689
2582.88	94.789
2576.28	41.6709
2569.68	104.086
2563.07	115.341
2556.46	120.908
2549.84	107.59
2543.21	101.838
2536.58	107.402
2529.94	105.426
2523.3	99.6913
2516.65	131.553
2509.99	99.5174
2503.33	136.951
2496.67	88.0972
2489.99	138.585
2483.32	69.2319
2476.63	84.1274
2469.94	145.693
2463.25	111.974
2456.55	130.522
2449.84	130.407
2443.12	80.0372
2436.41	89.2656
2429.68	100.336
2422.95	64.9754
2416.21	142.821
2409.47	77.8337
2402.72	138.867
2395.97	86.9468
2389.21	107.202
2382.44	134.808
2375.67	108.859
2368.89	103.233
2362.1	101.3
2355.31	114.092
2348.52	137.893
2341.72	73.4784
2334.91	77.0843
2328.09	102.689
2321.27	87.9412
2314.45	113.491
2307.61	109.733
2300.77	102.327
2293.93	135.098
2287.08	63.8415
2280.22	142.15
2273.36	92.8619
2266.49	54.5764
2259.62	87.245
2252.74	105.328
2245.85	70.7612
2238.96	112.393
2232.06	97.8037
2225.15	124.861
2218.24	108.478
2211.32	86.7058
2204.4	101.067
2197.47	82.9457
2190.53	90.0784
2183.59	43.1993
2176.64	95.3137
2169.69	84.4484
2162.73	62.8313
2155.76	102.234
2148.79	109.311
2141.81	84.1486
2134.82	94.8066
2127.83	112.594
2120.83	73.2104
2113.83	33.8966
2106.82	73.0801
2099.8	49.8639
2092.78	58.7157
2085.75	99.55
2078.72	110.118
2071.67	81.6273
2064.63	69.144
2057.57	109.823
2050.51	90.2576
2043.44	63.6543
2036.37	125.428
2029.29	104.136
2022.21	95.2256
2015.11	89.8548
2008.02	75.6921
2000.91	98.4874
1993.8	86.0993
1986.68	91.2888
1979.56	142.072
1972.43	64.8391
1965.29	66.5317
1958.15	68.2213
1951	75.1508
1943.84	64.6066
1936.68	90.7168
1929.51	67.9765
1922.33	73.1396
1915.15	88.7325
1907.96	85.1761
1900.77	81.626
1893.57	85.0228
1886.36	79.7454
1879.14	81.4056
1871.92	124.594
1864.7	79.53
1857.46	93.2771
1850.22	70.7576
1842.98	75.8664
1835.72	89.5794
1828.46	55.076
1821.19	101.455
1813.92	44.6684
1806.64	72.0914
1799.36	109.754
1792.06	58.2541
1784.76	82.1666
1777.46	87.223
1770.14	52.9699
1762.82	25.6074
1755.5	73.3412
1748.17	73.2747
1740.83	80.0183
1733.48	62.9359
1726.13	96.8673
1718.77	59.4259
1711.4	103.477
1704.03	67.792
1696.65	84.6629
1689.26	62.5936
1681.87	69.2973
1674.47	79.3661
1667.06	84.3551
1659.65	47.1958
1652.23	63.9931
1644.8	72.3473
1637.37	84.048
1629.93	78.9331
1622.48	70.4716
1615.03	68.7309
1607.57	66.9933
1600.1	90.3583
1592.63	143.772
1585.15	145.311
1577.66	123.485
1570.16	98.3642
1562.66	86.6145
1555.15	74.8862
1547.64	54.8663
1540.11	93.0211
1532.59	58.0849
1525.05	76.2702
1517.51	69.5741
1509.96	46.3402
1502.4	89.2883
1494.83	64.4268
1487.26	80.8721
1479.69	57.7127
1472.1	102.14
1464.51	65.8361
1456.91	72.3531
1449.3	52.572
1441.69	80.4268
1434.07	68.8737
1426.45	47.5118
1418.81	42.5576
1411.17	71.9541
1403.52	62.0848
1395.87	60.3952
1388.21	58.7087
1380.54	79.8353
1372.86	66.7392
1365.18	40.657
1357.49	74.7398
1349.79	71.4241
1342.08	53.5185
1334.37	115.039
1326.65	69.6072
1318.93	85.7154
1311.19	64.631
1303.45	24.2141
1295.7	79.0262
1287.95	62.84
1280.19	41.8545
1272.42	67.5483
1264.64	88.374
1256.86	70.6335
1249.07	81.7946
1241.27	65.6953
1233.46	86.445
1225.65	43.1823
1217.83	70.3056
1210	51.0837
1202.17	100.477
1194.33	50.9886
1186.48	70.044
1178.62	65.2074
1170.76	81.0359
1162.88	49.2112
1155.01	49.1652
1147.12	49.1193
1139.23	58.5715
1131.33	75.9136
1123.42	91.6431
1115.5	71.0359
1107.58	39.4275
1099.65	15.7562
1091.71	72.4107
1083.77	39.3168
1075.81	56.5631
1067.85	81.6257
1059.89	65.8666
1051.91	75.2054
1043.93	73.5695
1035.94	59.4259
1027.94	89.0551
1019.93	84.2887
1011.92	43.6642
1003.9	109.058
999.086	87.1969

File: gr-baseline-2.txt
2999.69	158.359
2993.45	114.181
2987.2	148.109
2980.96	159.981
2974.7	87.9148
2968.44	179.672
2962.18	125.663
2955.91	133.528
2949.63	145.362
2943.35	177.07
2937.07	143.126
2930.77	107.252
2924.48	125.021
2918.18	180.431
2911.87	128.769
2905.56	174.185
2899.24	152.281
2892.91	104.727
2886.58	159.918
2880.25	128.219
2873.91	130.08
2867.56	159.507
2861.21	106.247
2854.86	104.19
2848.49	121.778
2842.13	129.523
2835.75	131.373
2829.38	143.015
2822.99	101.786
2816.6	152.548
2810.21	160.233
2803.81	146.428
2797.4	111.19
2790.99	105.247
2784.57	124.63
2778.15	165.382
2771.72	75.8157
2765.29	112.654
2758.85	155.251
2752.41	143.484
2745.96	156.921
2739.5	178.078
2733.04	160.518
2726.57	202.89
2720.1	250.98
2713.62	325.992
2707.14	412.438
2700.65	521.842
2694.16	748.417
2687.66	836.195
2681.15	764.408
2674.64	685.069
2668.12	440.979
2661.6	337.152
2655.07	244.989
2648.53	225.654
2641.99	145.21
2635.45	150.811
2628.9	156.403
2622.34	144.833
2615.78	100.914
2609.21	104.631
2602.63	112.143
2596.06	115.844
2589.47	92.974
2582.88	144.079
2576.28	107.965
2569.68	136.259
2563.07	109.668
2556.46	120.908
2549.84	101.927
2543.21	177.274
2536.58	114.939
2529.94	107.309
2523.3	127.906
2516.65	107.122
2509.99	76.9851
2503.33	103.183
2496.67	136.832
2489.99	101.13
2483.32	123.495
2476.63	136.473
2469.94	155.033
2463.25	153.031
2456.55	139.845
2449.84	150.9
2443.12	169.381
2436.41	154.355
2429.68	109.626
2422.95	126.238
2416.21	81.6117
2409.47	105.632
2402.72	111.093
2395.97	92.4966
2389.21	90.5671
2382.44	86.7941
2375.67	114.394
2368.89	129.041
2362.1	114.193
2355.31	62.5667
2348.52	64.3502
2341.72	67.9675
2334.91	100.944
2328.09	73.349
2321.27	93.4375
2314.45	118.982
2307.61	65.8397
2300.77	87.7088
2293.93	78.5031
2287.08	67.4895
2280.22	98.4113
2273.36	105.608
2266.49	123.706
2259.62	63.6161
2252.74	105.328
2245.85	114.307
2238.96	114.205
2232.06	110.482
2225.15	68.7639
2218.24	63.279
2211.32	72.2548
2204.4	92.0432
2197.47	147.86
2190.53	104.491
2183.59	84.5986
2176.64	98.9105
2169.69	152.726
2162.73	89.759
2155.76	34.0781
2148.79	123.647
2141.81	105.633
2134.82	123.427
2127.83	66.1268
2120.83	82.1385
2113.83	60.657
2106.82	92.6869
2099.8	108.632
2092.78	129.886
2085.75	135.104
2078.72	81.7002
2071.67	113.568
2064.63	101.057
2057.57	106.28
2050.51	95.5669
2043.44	81.3361
2036.37	120.128
2029.29	98.8409
2022.21	91.6987
2015.11	133.901
2008.02	58.0893
2000.91	28.1393
1993.8	84.3422
1986.68	122.889
1979.56	64.8973
1972.43	96.3824
1965.29	140.067
1958.15	111.953
1951	87.3846
1943.84	94.2907
1936.68	95.9505
1929.51	99.3502
1922.33	67.9154
1915.15	71.334
1907.96	90.391
1900.77	131.991
1893.57	93.6986
1886.36	100.549
1879.14	121.242
1871.92	93.4456
1864.7	102.006
1857.46	103.641
1850.22	132.886
1842.98	70.6937
1835.72	67.1845
1828.46	86.0562
1821.19	108.333
1813.92	77.3106
1806.64	61.7926
1799.36	41.1578
1792.06	114.795
1784.76	114.691
1777.46	95.7743
1770.14	97.3962
1762.82	75.1149
1755.5	69.93
1748.17	42.6016
1740.83	54.4805
1733.48	83.3476
1726.13	120.659
1718.77	129.039
1711.4	128.922
1704.03	110.162
1696.65	104.982
1689.26	79.5107
1681.87	96.3402
1674.47	87.8093
1667.06	48.926
1659.65	75.8505
1652.23	69.0452
1644.8	99.2672
1637.37	102.539
1629.93	92.3685
1622.48	104.029
1615.03	125.727
1607.57	78.7171
1600.1	128.844
1592.63	279.186
1585.15	248.866
1577.66	141.841
1570.16	136.71
1562.66	84.9489
1555.15	101.512
1547.64	89.7812
1540.11	54.816
1532.59	102.893
1525.05	87.8765
1517.51	74.5437
1509.96	54.6152
1502.4	74.4069
1494.83	107.378
1487.26	69.3189
1479.69	82.4467
1472.1	54.3648
1464.51	46.0853
1456.91	83.8638
1449.3	92.001
1441.69	88.6336
1434.07	88.5519
1426.45	68.8103
1418.81	63.8363
1411.17	96.4839
1403.52	49.0143
1395.87	97.9382
1388.21	92.9554
1380.54	92.8696
1372.86	84.6449
1365.18	56.9198
1357.49	71.4902
1349.79	126.615
1342.08	108.659
1334.37	71.292
1326.65	92.27
1318.93	72.7773
1311.19	90.4833
1303.45	64.571
1295.7	69.3495
1287.95	75.7303
1280.19	61.1719
1272.42	30.5576
1264.64	77.1264
1256.86	43.3433
1249.07	60.945
1241.27	72.1046
1233.46	46.4242
1225.65	70.3711
1217.83	76.697
1210	79.8183
1202.17	33.4925
1194.33	66.9225
1186.48	49.3492
1178.62	82.702
1170.76	79.447
1162.88	90.485
1155.01	109.432
1147.12	72.8867
1139.23	47.4904
1131.33	68.0059
1123.42	56.8819
1115.5	91.5574
1107.58	82.0091
1099.65	100.84
1091.71	75.559
1083.77	83.3516
1075.81	62.8479
1067.85	87.9045
1059.89	61.1618
1051.91	51.7037
1043.93	39.1327
1035.94	82.8835
1027.94	95.3046
1019.93	98.3368
1011.92	82.65
1003.9	119.964
999.086	115.225

File: gr-baseline-3.txt
2999.69	60.1364
2993.45	120.191
2987.2	182.134
2980.96	145.983
2974.7	111.892
2968.44	159.709
2962.18	111.701
2955.91	91.6759
2949.63	109.519
2943.35	115.394
2937.07	149.089
2930.77	83.4186
2924.48	97.2385
2918.18	128.88
2911.87	130.75
2905.56	116.783
2899.24	108.772
2892.91	128.439
2886.58	110.56
2880.25	88.7671
2873.91	130.08
2867.56	133.907
2861.21	70.8312
2854.86	88.4631
2848.49	117.85
2842.13	82.424
2835.75	123.53
2829.38	86.2007
2822.99	121.36
2816.6	115.389
2810.21	107.473
2803.81	132.762
2797.4	111.19
2790.99	138.381
2784.57	155.788
2778.15	128.414
2771.72	139.967
2765.29	149.558
2758.85	141.667
2752.41	135.728
2745.96	143.36
2739.5	176.142
2733.04	195.329
2726.57	142.989
2720.1	225.882
2713.62	356.856
2707.14	474.111
2700.65	519.916
2694.16	629.132
2687.66	624.743
2681.15	520.489
2674.64	449.037
2668.12	266.505
2661.6	224.13
2655.07	174.172
2648.53	208.443
2641.99	145.21
2635.45	150.811
2628.9	97.2748
2622.34	141.021
2615.78	118.05
2609.21	154.093
2602.63	47.5183
2596.06	119.642
2589.47	98.6663
2582.88	115.643
2576.28	121.224
2569.68	90.8391
2563.07	153.158
2556.46	137.911
2549.84	115.14
2543.21	128.241
2536.58	120.592
2529.94	120.487
2523.3	86.5245
2516.65	120.277
2509.99	92.0066
2503.33	116.315
2496.67	108.716
2489.99	117.985
2483.32	125.366
2476.63	125.256
2469.94	117.675
2463.25	143.7
2456.55	141.709
2449.84	111.778
2443.12	100.512
2436.41	124.6
2429.68	96.6196
2422.95	109.53
2416.21	77.9021
2409.47	96.3656
2402.72	85.1717
2395.97	103.596
2389.21	127.533
2382.44	88.6408
2375.67	119.929
2368.89	64.5204
2362.1	99.4582
2355.31	82.8089
2348.52	156.279
2341.72	90.011
2334.91	119.297
2328.09	110.023
2321.27	104.43
2314.45	126.304
2307.61	109.733
2300.77	120.6
2293.93	102.237
2287.08	80.2578
2280.22	94.7664
2273.36	67.3704
2266.49	52.7571
2259.62	130.867
2252.74	87.1678
2245.85	72.5756
2238.96	99.7031
2232.06	103.237
2225.15	97.7171
2218.24	104.862
2211.32	106.576
2204.4	95.6528
2197.47	124.419
2190.53	84.6737
2183.59	77.3987
2176.64	89.9186
2169.69	113.197
2162.73	66.4216
2155.76	84.2984
2148.79	123.647
2141.81	105.633
2134.82	91.229
2127.83	121.53
2120.83	67.8536
2113.83	89.2015
2106.82	85.5572
2099.8	69.4532
2092.78	120.99
2085.75	120.882
2078.72	69.2676
2071.67	58.5587
2064.63	60.2794
2057.57	118.68
2050.51	76.0996
2043.44	70.727
2036.37	97.1627
2029.29	72.3656
2022.21	72.3009
2015.11	84.5692
2008.02	72.1715
2000.91	66.8308
1993.8	66.7709
1986.68	82.511
1979.56	80.6831
1972.43	68.3439
1965.29	35.0167
1958.15	104.956
1951	101.366
1943.84	80.3217
1936.68	75.0158
1929.51	66.2335
1922.33	57.4668
1915.15	92.2122
1907.96	78.2229
1900.77	95.5198
1893.57	55.5251
1886.36	39.8727
1879.14	93.5299
1871.92	58.8361
1864.7	95.0902
1857.46	81.1856
1850.22	88.0155
1842.98	105.178
1835.72	87.8567
1828.46	92.9407
1821.19	82.5393
1813.92	96.2088
1806.64	82.3901
1799.36	94.3199
1792.06	61.6808
1784.76	82.1666
1777.46	42.7564
1770.14	92.2701
1762.82	63.1648
1755.5	81.8693
1748.17	73.2747
1740.83	95.3409
1733.48	86.7495
1726.13	76.4742
1718.77	71.3111
1711.4	72.9427
1704.03	74.5712
1696.65	71.1168
1689.26	65.977
1681.87	109.862
1674.47	64.1683
1667.06	70.8583
1659.65	85.9639
1652.23	57.257
1644.8	62.2523
1637.37	73.9623
1629.93	89.0096
1622.48	97.3179
1615.03	105.611
1607.57	66.9933
1600.1	97.0515
1592.63	178.88
1585.15	215.462
1577.66	170.209
1570.16	116.703
1562.66	131.587
1555.15	59.909
1547.64	64.842
1540.11	78.0713
1532.59	63.0636
1525.05	76.2702
1517.51	89.4524
1509.96	51.3052
1502.4	112.437
1494.83	57.8189
1487.26	67.6685
1479.69	79.1488
1472.1	59.307
1464.51	80.6492
1456.91	95.3745
1449.3	90.3581
1441.69	65.6545
1434.07	98.391
1426.45	65.5336
1418.81	73.6573
1411.17	65.4128
1403.52	70.2539
1395.87	62.0275
1388.21	70.1243
1380.54	84.7231
1372.86	96.0394
1365.18	40.657
1357.49	43.869
1349.79	47.075
1342.08	60.0056
1334.37	77.7731
1326.65	72.8447
1318.93	93.8018
1311.19	71.0941
1303.45	14.5285
1295.7	48.3834
1287.95	58.0062
1280.19	77.2698
1272.42	90.0644
1264.64	40.17
1256.86	85.0813
1249.07	51.3221
1241.27	56.0813
1233.46	73.6383
1225.65	54.3777
1217.83	44.7399
1210	41.5055
1202.17	68.5798
1194.33	82.8565
1186.48	66.8601
1178.62	74.7499
1170.76	49.2571
1162.88	47.6237
1155.01	74.5408
1147.12	98.2386
1139.23	79.1506
1131.33	75.9136
1123.42	42.6615
1115.5	47.3573
1107.58	75.7007
1099.65	64.6005
1091.71	37.7795
1083.77	31.4534
1075.81	25.1392
1067.85	47.0917
1059.89	75.2761
1051.91	48.5702
1043.93	65.743
1035.94	50.0429
1027.94	92.1798
1019.93	51.5098
1011.92	99.8038
1003.9	87.2462
999.086	110.553

File: gr-baseline-4.txt
2999.69	94.2136
2993.45	114.181
2987.2	96.0707
2980.96	137.984
2974.7	97.9051
2968.44	145.734
2962.18	131.647
2955.91	123.563
2949.63	105.536
2943.35	85.5508
2937.07	121.259
2930.77	91.3632
2924.48	142.881
2918.18	172.5
2911.87	132.731
2905.56	122.721
2899.24	134.482
2892.91	100.775
2886.58	175.712
2880.25	167.671
2873.91	126.138
2867.56	112.246
2861.21	116.085
2854.86	98.2924
2848.49	113.921
2842.13	107.936
2835.75	117.647
2829.38	131.26
2822.99	121.36
2816.6	144.725
2810.21	95.7489
2803.81	107.381
2797.4	122.894
2790.99	89.655
2784.57	114.893
2778.15	114.794
2771.72	99.1436
2765.29	124.308
2758.85	147.489
2752.41	96.9485
2745.96	137.548
2739.5	123.88
2733.04	212.735
2726.57	204.822
2720.1	276.078
2713.62	351.069
2707.14	506.875
2700.65	687.445
2694.16	806.136
2687.66	759.303
2681.15	654.933
2674.64	518.119
2668.12	318.272
2661.6	310.333
2655.07	206.71
2648.53	198.881
2641.99	162.406
2635.45	122.176
2628.9	141.144
2622.34	129.587
2615.78	102.818
2609.21	93.2169
2602.63	87.4337
2596.06	151.926
2589.47	111.948
2582.88	75.8312
2576.28	117.436
2569.68	85.1617
2563.07	136.14
2556.46	102.016
2549.84	162.329
2543.21	86.7513
2536.58	81.0229
2529.94	118.604
2523.3	131.668
2516.65	125.915
2509.99	122.05
2503.33	146.332
2496.67	101.218
2489.99	106.748
2483.32	65.4897
2476.63	100.953
2469.94	89.6574
2463.25	128.77
2456.55	123.063
2449.84	115.504
2443.12	148.906
2436.41	111.582
2429.68	107.768
2422.95	172.649
2416.21	129.837
2409.47	100.072
2402.72	120.351
2395.97	86.9468
2389.21	99.8086
2382.44	75.714
2375.67	75.6475
2368.89	94.0154
2362.1	86.5654
2355.31	82.8089
2348.52	102.96
2341.72	128.587
2334.91	139.486
2328.09	124.693
2321.27	146.569
2314.45	98.8466
2307.61	98.7595
2300.77	127.909
2293.93	62.0722
2287.08	134.979
2280.22	85.6542
2273.36	65.5495
2266.49	94.599
2259.62	129.05
2252.74	110.776
2245.85	108.863
2238.96	68.8858
2232.06	77.8807
2225.15	85.05
2218.24	-1.80797
2211.32	104.769
2204.4	72.1908
2197.47	45.0792
2190.53	102.689
2183.59	89.9985
2176.64	64.7414
2169.69	77.2613
2162.73	77.1927
2155.76	66.3626
2148.79	103.935
2141.81	91.3102
2134.82	76.9185
2127.83	101.871
2120.83	74.9961
2113.83	115.962
2106.82	92.6869
2099.8	103.289
2092.78	104.977
2085.75	94.2169
2078.72	74.5959
2071.67	115.343
2064.63	111.694
2057.57	111.594
2050.51	65.481
2043.44	91.9451
2036.37	137.794
2029.29	82.9557
2022.21	102.279
2015.11	59.9032
2008.02	117.939
2000.91	84.4178
1993.8	103.671
1986.68	59.6888
1979.56	96.4689
1972.43	126.173
1965.29	43.7709
1958.15	76.9676
1951	113.6
1943.84	104.767
1936.68	76.7604
1929.51	102.836
1922.33	78.3639
1915.15	62.6347
1907.96	107.774
1900.77	71.2057
1893.57	58.9954
1886.36	112.684
1879.14	72.7455
1871.92	74.4104
1864.7	102.006
1857.46	38.0018
1850.22	62.1286
1842.98	113.8
1835.72	60.2938
1828.46	58.5182
1821.19	68.7828
1813.92	94.4908
1806.64	106.421
1799.36	66.8814
1792.06	49.6873
1784.76	47.9305
1777.46	95.7743
1770.14	35.8828
1762.82	71.7006
1755.5	88.6917
1748.17	30.6731
1740.83	80.0183
1733.48	86.7495
1726.13	107.064
1718.77	78.1026
1711.4	76.3353
1704.03	74.5712
1696.65	116.835
1689.26	94.7362
1681.87	77.7482
1674.47	72.6115
1667.06	97.852
1659.65	94.3917
1652.23	84.2015
1644.8	62.2523
1637.37	89.0909
1629.93	92.3685
1622.48	119.131
1615.03	77.1127
1607.57	93.7906
1600.1	127.171
1592.63	219.002
1585.15	250.537
1577.66	150.184
1570.16	136.71
1562.66	63.2952
1555.15	104.841
1547.64	114.72
1540.11	81.3935
1532.59	71.3614
1525.05	64.6638
1517.51	84.4828
1509.96	44.6852
1502.4	133.932
1494.83	82.5984
1487.26	67.6685
1479.69	61.0105
1472.1	54.3648
1464.51	72.4197
1456.91	34.5322
1449.3	72.2865
1441.69	75.5027
1434.07	101.671
1426.45	72.0869
1418.81	91.6624
1411.17	52.3302
1403.52	62.0848
1395.87	60.3952
1388.21	75.0167
1380.54	84.7231
1372.86	65.1114
1365.18	52.041
1357.49	74.7398
1349.79	37.3353
1342.08	58.3838
1334.37	72.9122
1326.65	64.7509
1318.93	46.9009
1311.19	59.7836
1303.45	90.3995
1295.7	19.3534
1287.95	22.558
1280.19	80.4894
1272.42	94.8893
1264.64	64.272
1256.86	51.3698
1249.07	44.9068
1241.27	76.9115
1233.46	35.2183
1225.65	52.7783
1217.83	59.1206
1210	46.2946
1202.17	55.8208
1194.33	71.7027
1186.48	54.1249
1178.62	77.9307
1170.76	55.6129
1162.88	31.7491
1155.01	80.8847
1147.12	38.0278
1139.23	74.4016
1131.33	45.8644
1123.42	41.0814
1115.5	48.9358
1107.58	91.4717
1099.65	85.0836
1091.71	83.4297
1083.77	55.0435
1075.81	50.2783
1067.85	58.0798
1059.89	65.8666
1051.91	76.7722
1043.93	72.0042
1035.94	67.2451
1027.94	101.554
1019.93	99.8977
1011.92	102.923
1003.9	87.2462
999.086	121.453

File: Si_test.txt
992.106	24.8746
988.89	12.4352
985.672	13.9847
982.454	9.31993
979.234	4.65835
976.013	9.31345
972.791	18.6204
969.568	18.6139
966.344	29.4618
963.118	17.0508
959.892	17.0449
956.664	12.3919
953.436	7.74222
950.206	1.5479
946.975	24.7576
943.742	7.73403
940.509	20.1014
937.275	15.4571
934.039	-1.54516
930.802	-7.72306
927.564	6.17625
924.325	0
921.085	10.8007
917.844	4.62723
914.601	3.08371
911.357	7.70652
908.112	-1.54075
904.866	16.9422
901.619	3.07928
898.371	6.15635
895.121	6.15412
891.871	0
888.619	-3.07484
885.366	6.14744
882.111	-4.60891
878.856	-12.286
875.599	1.53519
872.341	9.20777
869.082	1.53407
865.822	1.53351
862.561	4.59884
859.298	0
856.034	4.59548
852.769	1.53126
849.503	6.1228
846.236	-3.06028
842.967	1.52958
839.697	-9.17407
836.426	6.11379
833.154	-22.9183
829.881	0
826.606	0
823.33	12.2095
820.053	-9.15374
816.775	19.8257
813.496	4.57347
810.215	4.57177
806.933	1.52336
803.65	3.04558
800.366	7.61111
797.08	10.6516
793.793	-6.08435
790.505	9.12311
787.216	12.1596
783.925	3.03876
780.634	9.11286
777.341	3.03648
774.046	4.55301
770.751	10.6197
767.454	12.1322
764.156	-1.51596
760.857	10.6077
757.557	1.51482
754.255	19.6852
750.952	-7.56837
747.648	10.5917
744.343	-10.5877
741.036	-4.53587
737.728	9.06831
734.419	1.51081
731.108	0
727.797	4.529
724.484	-4.52728
721.17	4.52556
717.854	4.52384
714.537	0
711.219	1.5068
707.9	10.5436
704.58	-3.0113
701.258	12.0406
697.935	9.027
694.611	-7.51963
691.285	6.0134
687.958	7.51388
684.63	13.5198
681.301	12.013
677.97	-6.0042
674.638	4.50142
671.305	10.4993
667.97	7.49661
664.634	13.4887
661.297	23.9707
657.959	13.4783
654.619	11.9761
651.278	5.98576
647.936	10.4711
644.593	7.47644
641.248	4.48413
637.902	13.4472
634.554	-8.96134
631.206	7.4649
627.856	1.4924
624.504	-2.98365
621.152	-2.9825
617.798	14.9067
614.443	1.49009
611.086	8.9371
607.728	7.4447
604.369	2.97672
601.009	5.95114
597.647	8.92324
594.284	0
590.92	2.9721
587.554	-5.94189
584.188	2.96979
580.819	8.9059
577.45	-2.96748
574.079	0
570.707	-2.96517
567.333	4.44601
563.959	-1.48143
560.582	2.9617
557.205	4.44081
553.826	16.2766
550.446	4.43734
547.065	-1.47853
543.682	-5.91183
540.298	1.47738
536.913	11.8144
533.526	14.7622
530.138	0
526.749	19.1758
523.358	101.739
519.966	206.347
516.572	95.7663
513.178	25.0367
509.782	16.1939
506.384	2.94318
502.986	13.2391
499.586	5.88173
496.184	10.289
492.782	-4.40783
489.378	8.81218
485.972	2.93623
482.566	16.1429
479.157	2.93392
475.748	10.2647
472.337	-2.9316
468.925	13.187
465.512	8.78785
462.097	11.7125
458.681	-7.31742
455.263	2.92581
451.844	2.92465
448.424	7.30873
445.002	4.3835
441.58	-1.46059
438.155	-5.84003
434.73	-1.45943
431.303	13.1296
427.874	7.29134
424.444	-2.91538
421.013	8.74265
417.581	8.73917
414.147	7.27975
410.712	0
407.275	4.36437
403.837	-2.90842
400.398	4.36089
396.957	17.4366
393.515	-1.45247
390.072	8.71133
386.627	26.1235
383.181	2.90146
379.733	-5.80059
376.284	2.89913
372.834	17.3878
369.382	4.34522
365.929	-1.44782
362.474	1.44724
359.019	11.5733
355.561	4.33825
352.103	2.891
348.643	11.5594
345.181	11.5547
341.718	-4.33127
338.254	0
334.788	4.32778
331.321	-7.21006
327.853	2.88286
324.383	0
320.912	4.3208
317.439	4.31905
313.965	1.4391
310.49	4.31556
307.013	17.2552
303.535	27.3097
300.055	17.2413
296.574	10.0533
293.091	11.4848
289.608	10.0452
286.122	1.43444
282.635	-7.16928
279.147	-5.73309
275.658	-7.16344
272.167	18.6174
268.674	8.58912
265.18	4.29281
261.685	7.15176
258.188	14.2977
254.69	8.57509
251.191	12.8574
247.69	4.28403
244.187	14.2743
240.683	11.4147
237.178	15.6888
233.671	21.385
230.163	9.97557
226.653	9.97147
223.142	11.3913
219.63	-5.69329
216.116	5.69094
212.6	-1.42215
209.083	19.9018
205.565	9.9468
202.045	2.84077
198.524	7.09897
195.001	9.93444
191.477	2.83723
187.951	4.25408
184.424	9.92206
180.896	4.25054
177.366	-5.66503
173.834	-4.247
170.301	4.24523
166.767	8.48691
163.231	-14.1389
159.693	2.8266
156.154	9.88897
152.614	5.64847
149.072	5.6461
145.529	9.87652
141.984	8.46203
138.437	8.45846
134.889	1.40915
131.34	5.63422
127.789	5.63184
124.237	-5.62946
120.683	12.6609
117.128	7.03087
113.571	14.0558
110.012	21.0747
106.452	14.0438
102.891	2.80757
99.328	12.6287
95.7636	0
92.1976	5.60795
88.6301	9.80972
85.0611	9.80552
81.4905	1.40019
77.9184	2.79918
74.3448	2.79797
70.7696	-1.39838
67.1929	5.59113
63.6146	-2.79436
60.0348	4.18973
56.4535	8.37583
52.8706	6.97684
49.2861	1.39476
45.7001	8.36494
42.1126	9.75486
38.5234	0
34.9327	9.74636
31.3405	11.1338
27.7466	-12.5201
24.1512	2.78102
20.5543	0
16.9557	0