Folder: GFET-covid-flu/Akinwande-lab-measurements/raman/data/Raman 25-12-11 finished-wafer-1

File: d1_1.txt
2999.69	224.509
2993.45	240.382
2987.2	228.168
2980.96	183.979
2974.7	255.752
2968.44	217.603
2962.18	205.45
2955.91	231.183
2949.63	256.872
2943.35	218.851
2937.07	248.482
2930.77	228.408
2924.48	208.368
2918.18	253.794
2911.87	259.52
2905.56	184.082
2899.24	243.254
2892.91	219.334
2886.58	213.224
2880.25	211.068
2873.91	232.568
2867.56	218.584
2861.21	194.786
2854.86	210.346
2848.49	219.986
2842.13	239.422
2835.75	219.609
2829.38	244.888
2822.99	225.104
2816.6	220.999
2810.21	212.993
2803.81	208.905
2797.4	200.922
2790.99	229.985
2784.57	212.261
2778.15	245.154
2771.72	233.279
2765.29	221.424
2758.85	225.115
2752.41	205.531
2745.96	234.413
2739.5	220.661
2733.04	243.678
2726.57	214.484
2720.1	260.633
2713.62	271.982
2707.14	248.619
2700.65	311.95
2694.16	330.92
2687.66	334.478
2681.15	280.411
2674.64	272.492
2668.12	247.332
2661.6	231.792
2655.07	229.677
2648.53	233.303
2641.99	227.369
2635.45	242.444
2628.9	207.901
2622.34	228.683
2615.78	215.156
2609.21	216.872
2602.63	212.882
2596.06	193.706
2589.47	214.41
2582.88	225.598
2576.28	217.825
2569.68	198.711
2563.07	213.664
2556.46	205.921
2549.84	215.18
2543.21	203.677
2536.58	211.036
2529.94	188.261
2523.3	201.264
2516.65	208.605
2509.99	193.402
2503.33	206.365
2496.67	189.315
2489.99	202.259
2483.32	192.727
2476.63	201.906
2469.94	192.39
2463.25	173.559
2456.55	210.699
2449.84	195.611
2443.12	212.192
2436.41	204.567
2429.68	178.375
2422.95	181.931
2416.21	176.207
2409.47	201.997
2402.72	188.859
2395.97	199.793
2389.21	197.769
2382.44	199.442
2375.67	201.112
2368.89	180.657
2362.1	184.182
2355.31	185.86
2348.52	174.665
2341.72	169
2334.91	187.205
2328.09	194.375
2321.27	175.882
2314.45	172.066
2307.61	186.546
2300.77	197.345
2293.93	197.171
2287.08	158.692
2280.22	184.066
2273.36	165.695
2266.49	211.029
2259.62	199.936
2252.74	194.312
2245.85	185.068
2238.96	195.781
2232.06	211.908
2225.15	197.244
2218.24	200.685
2211.32	186.056
2204.4	211.158
2197.47	144.253
2190.53	172.951
2183.59	212.396
2176.64	169.047
2169.69	206.629
2162.73	175.928
2155.76	188.326
2148.79	177.407
2141.81	159.345
2134.82	187.824
2127.83	178.721
2120.83	174.991
2113.83	169.483
2106.82	174.679
2099.8	174.524
2092.78	169.03
2085.75	152.88
2078.72	147.416
2071.67	173.902
2064.63	152.471
2057.57	178.905
2050.51	169.897
2043.44	185.658
2036.37	146.627
2029.29	192.387
2022.21	153.419
2015.11	158.567
2008.02	168.987
2000.91	160.042
1993.8	165.17
1986.68	172.044
1979.56	166.628
1972.43	164.726
1965.29	154.073
1958.15	162.682
1951	148.554
1943.84	150.167
1936.68	158.754
1929.51	153.383
1922.33	153.245
1915.15	146.148
1907.96	154.708
1900.77	158.042
1893.57	126.667
1886.36	143.889
1879.14	159.347
1871.92	154.012
1864.7	162.518
1857.46	155.462
1850.22	157.047
1842.98	148.284
1835.72	153.319
1828.46	141.132
1821.19	113.492
1813.92	146.031
1806.64	140.75
1799.36	140.622
1792.06	143.922
1784.76	118.115
1777.46	157.343
1770.14	126.444
1762.82	153.644
1755.5	141.566
1748.17	115.876
1740.83	146.416
1733.48	127.573
1726.13	139.353
1718.77	156.205
1711.4	123.833
1704.03	130.5
1696.65	145.62
1689.26	118.42
1681.87	131.834
1674.47	136.78
1667.06	153.526
1659.65	143.273
1652.23	153.247
1644.8	143.012
1637.37	152.967
1629.93	142.751
1622.48	105.707
1615.03	144.167
1607.57	132.312
1600.1	125.498
1592.63	163.834
1585.15	150.322
1577.66	146.847
1570.16	121.705
1562.66	124.925
1555.15	116.49
1547.64	131.347
1540.11	111.293
1532.59	122.808
1525.05	137.618
1517.51	122.583
1509.96	125.78
1502.4	132.279
1494.83	135.461
1487.26	113.881
1479.69	108.83
1472.1	136.736
1464.51	118.505
1456.91	121.685
1449.3	101.858
1441.69	103.406
1434.07	103.311
1426.45	113.045
1418.81	101.483
1411.17	106.296
1403.52	106.198
1395.87	104.467
1388.21	119.048
1380.54	109.162
1372.86	97.6671
1365.18	141.486
1357.49	110.485
1349.79	134.732
1342.08	110.281
1334.37	119.9
1326.65	111.695
1318.93	122.913
1311.19	113.104
1303.45	103.314
1295.7	96.7668
1287.95	119.235
1280.19	104.636
1272.42	112.581
1264.64	110.869
1256.86	102.74
1249.07	107.456
1241.27	99.3441
1233.46	91.2475
1225.65	86.3646
1217.83	107.056
1210	102.167
1202.17	90.9082
1194.33	116.318
1186.48	73.2278
1178.62	98.6063
1170.76	98.5143
1162.88	84.1352
1155.01	99.9164
1147.12	80.8091
1139.23	102.896
1131.33	66.4244
1123.42	88.483
1115.5	83.6645
1107.58	80.432
1099.65	94.5373
1091.71	89.7263
1083.77	88.0696
1075.81	86.4159
1067.85	80.0559
1059.89	79.9808
1051.91	81.4726
1043.93	81.3961
1035.94	76.6281
1027.94	81.2432
1019.93	99.8977
1011.92	48.3425
1003.9	102.826
999.086	79.4115

File: d1_2.txt
2999.69	1429.24
2993.45	1472.34
2987.2	1403.03
2980.96	1347.84
2974.7	1458.59
2968.44	1437.38
2962.18	1362.35
2955.91	1413
2949.63	1413.79
2943.35	1408.6
2937.07	1371.62
2930.77	1422.09
2924.48	1369.28
2918.18	1372.07
2911.87	1380.8
2905.56	1369.73
2899.24	1386.35
2892.91	1359.48
2886.58	1340.55
2880.25	1376.88
2873.91	1361.9
2867.56	1406.03
2861.21	1402.85
2854.86	1305.32
2848.49	1388.66
2842.13	1281.5
2835.75	1421.57
2829.38	1330.23
2822.99	1395.64
2816.6	1347.51
2810.21	1369.8
2803.81	1315.9
2797.4	1357.69
2790.99	1331.18
2784.57	1293.04
2778.15	1365.86
2771.72	1337.47
2765.29	1326.6
2758.85	1426.37
2752.41	1365.03
2745.96	1356.11
2739.5	1397.52
2733.04	1361.5
2726.57	1352.6
2720.1	1397.77
2713.62	1493.01
2707.14	1645.9
2700.65	1731.13
2694.16	1918.18
2687.66	1806.95
2681.15	1749.69
2674.64	1548.6
2668.12	1447.56
2661.6	1444.39
2655.07	1343.61
2648.53	1342.45
2641.99	1285.88
2635.45	1248.49
2628.9	1205.44
2622.34	1280.63
2615.78	1357.58
2609.21	1221.33
2602.63	1260.19
2596.06	1257.19
2589.47	1225.74
2582.88	1291.03
2576.28	1263.38
2569.68	1235.79
2563.07	1227.15
2556.46	1275.2
2549.84	1228.79
2543.21	1269.21
2536.58	1164.47
2529.94	1219.93
2523.3	1100.37
2516.65	1214.04
2509.99	1201.72
2503.33	1196.92
2496.67	1197.75
2489.99	1217.3
2483.32	1246.17
2476.63	1250.69
2469.94	1184.22
2463.25	1132.8
2456.55	1165.37
2449.84	1181.12
2443.12	1148.44
2436.41	1164.17
2429.68	1144.57
2422.95	1175.13
2416.21	1120.31
2409.47	1208.28
2402.72	1190.55
2395.97	1111.81
2389.21	1182.92
2382.44	1187.42
2375.67	1180.84
2368.89	1107.91
2362.1	1130.88
2355.31	1122.52
2348.52	1136.24
2341.72	1092.99
2334.91	1093.86
2328.09	1059.89
2321.27	1117.59
2314.45	1114.77
2307.61	1084.53
2300.77	1120.11
2293.93	1060.7
2287.08	1072.54
2280.22	1091.64
2273.36	1072.46
2266.49	1071.52
2259.62	983.324
2252.74	1060.54
2245.85	1101.33
2238.96	1067.73
2232.06	1030.56
2225.15	1080.32
2218.24	1073.94
2211.32	1094.66
2204.4	1017.89
2197.47	1042.23
2190.53	1043.11
2183.59	1069.18
2176.64	1052.05
2169.69	1029.55
2162.73	1048.38
2155.76	1097.67
2148.79	1010.68
2141.81	1040.22
2134.82	1066.13
2127.83	1029.43
2120.83	951.736
2113.83	1013.33
2106.82	1008.86
2099.8	977.688
2092.78	1037.31
2085.75	1011.5
2078.72	896.927
2071.67	1022.12
2064.63	1024.75
2057.57	956.524
2050.51	960.978
2043.44	935.365
2036.37	930.996
2029.29	963.698
2022.21	931.094
2015.11	974.308
2008.02	881.901
2000.91	932.113
1993.8	917.221
1986.68	919.91
1979.56	919.086
1972.43	932.281
1965.29	903.431
1958.15	883.378
1951	901.81
1943.84	911.476
1936.68	933.337
1929.51	918.554
1922.33	893.348
1915.15	878.626
1907.96	872.62
1900.77	830.154
1893.57	909.224
1886.36	887.601
1879.14	891.998
1871.92	934.456
1864.7	848.896
1857.46	936.226
1850.22	790.414
1842.98	882.809
1835.72	861.34
1828.46	812.371
1821.19	849.467
1813.92	891.649
1806.64	810.17
1799.36	862.599
1792.06	829.264
1784.76	826.802
1777.46	808.951
1770.14	840.683
1762.82	827.971
1755.5	844.277
1748.17	788.981
1740.83	769.537
1733.48	799.457
1726.13	803.829
1718.77	777.631
1711.4	753.175
1704.03	786.387
1696.65	811.071
1689.26	798.491
1681.87	745.369
1674.47	748.068
1667.06	808.122
1659.65	751.762
1652.23	749.393
1644.8	800.868
1637.37	806.861
1629.93	796.049
1622.48	755.053
1615.03	804.654
1607.57	829.042
1600.1	801.512
1592.63	887.711
1585.15	888.57
1577.66	817.671
1570.16	813.589
1562.66	751.214
1555.15	722.236
1547.64	809.693
1540.11	730.88
1532.59	723.572
1525.05	726.225
1517.51	690.771
1509.96	718.273
1502.4	682.89
1494.83	652.527
1487.26	679.986
1479.69	713.988
1472.1	680.384
1464.51	696.217
1456.91	679.132
1449.3	647.293
1441.69	618.794
1434.07	718.255
1426.45	627.484
1418.81	656.369
1411.17	649.222
1403.52	702.539
1395.87	659.451
1388.21	600.133
1380.54	661.492
1372.86	616.931
1365.18	639.129
1357.49	719.777
1349.79	650.933
1342.08	642.222
1334.37	617.324
1326.65	655.603
1318.93	562.811
1311.19	599.452
1303.45	587.597
1295.7	570.924
1287.95	544.614
1280.19	561.816
1272.42	599.893
1264.64	607.37
1256.86	577.91
1249.07	558.128
1241.27	480.697
1233.46	501.061
1225.65	601.353
1217.83	496.933
1210	541.168
1202.17	547.044
1194.33	474.831
1186.48	460.061
1178.62	483.489
1170.76	490.982
1162.88	495.286
1155.01	543.989
1147.12	560.911
1139.23	495.483
1131.33	438.085
1123.42	455.055
1115.5	449.894
1107.58	465.244
1099.65	401.784
1091.71	454.928
1083.77	443.493
1075.81	443.078
1067.85	470.917
1059.89	486.158
1051.91	432.431
1043.93	422.634
1035.94	441.003
1027.94	490.584
1019.93	429.248
1011.92	511.494
1003.9	464.274
999.086	506.054

File: d2_1.txt
2999.69	1066.42
2993.45	1099.75
2987.2	1104.81
2980.96	1087.87
2974.7	1054.98
2968.44	1133.93
2962.18	1069.14
2955.91	1116.05
2949.63	1063.33
2943.35	1040.54
2937.07	1043.62
2930.77	1122.18
2924.48	1055.73
2918.18	1023.11
2911.87	1097.51
2905.56	1108.45
2899.24	1121.34
2892.91	1069.01
2886.58	1131.27
2880.25	1082.96
2873.91	1056.41
2867.56	1059.44
2861.21	1011.31
2854.86	1093.01
2848.49	1037.08
2842.13	1075.44
2835.75	1056.87
2829.38	1034.41
2822.99	1051.14
2816.6	1077.61
2810.21	1043.47
2803.81	1048.43
2797.4	1029.97
2790.99	1046.62
2784.57	1028.2
2778.15	1085.68
2771.72	1032.26
2765.29	1081.87
2758.85	1069.29
2752.41	1014.08
2745.96	1079.07
2739.5	1116.86
2733.04	1112.02
2726.57	1082.08
2720.1	1166.09
2713.62	1197.88
2707.14	1339.46
2700.65	1503.91
2694.16	1421.8
2687.66	1439.79
2681.15	1354.04
2674.64	1228.14
2668.12	1117.79
2661.6	1135.97
2655.07	1083.31
2648.53	1046.04
2641.99	1058.51
2635.45	1017.5
2628.9	909.805
2622.34	962.375
2615.78	974.868
2609.21	1000.65
2602.63	994.083
2596.06	955.237
2589.47	980.971
2582.88	1044.57
2576.28	984.948
2569.68	906.499
2563.07	975.67
2556.46	991.823
2549.84	1057.02
2543.21	965.579
2536.58	915.747
2529.94	988.37
2523.3	998.794
2516.65	920.87
2509.99	953.864
2503.33	981.172
2496.67	929.706
2489.99	990.695
2483.32	971.118
2476.63	983.355
2469.94	920.856
2463.25	880.859
2456.55	958.401
2449.84	924.029
2443.12	966.03
2436.41	942.867
2429.68	903.022
2422.95	944.928
2416.21	918.132
2409.47	919.18
2402.72	925.779
2395.97	913.867
2389.21	931.547
2382.44	932.575
2375.67	896.7
2368.89	916.189
2362.1	880.389
2355.31	912.738
2348.52	884.356
2341.72	892.762
2334.91	882.799
2328.09	920.53
2321.27	853.763
2314.45	887.789
2307.61	848.6
2300.77	866.124
2293.93	883.616
2287.08	924.789
2280.22	896.636
2273.36	921.335
2266.49	947.809
2259.62	828.827
2252.74	902.55
2245.85	832.805
2238.96	812.127
2232.06	833.142
2225.15	866.787
2218.24	875.059
2211.32	876.09
2204.4	804.927
2197.47	834.867
2190.53	875.562
2183.59	854.986
2176.64	825.453
2169.69	842.688
2162.73	793.469
2155.76	855.539
2148.79	838.651
2141.81	825.372
2134.82	828.216
2127.83	832.84
2120.83	826.742
2113.83	809.95
2106.82	807.446
2099.8	785.356
2092.78	807.786
2085.75	785.734
2078.72	824.107
2071.67	796.754
2064.63	811.999
2057.57	768.762
2050.51	831.786
2043.44	760.316
2036.37	777.302
2029.29	760.722
2022.21	779.439
2015.11	754.075
2008.02	793.887
2000.91	749.208
1993.8	729.208
1986.68	777.71
1979.56	778.767
1972.43	746.525
1965.29	707.337
1958.15	711.95
1951	721.797
1943.84	707.18
1936.68	682.121
1929.51	732.054
1922.33	712.241
1915.15	760.316
1907.96	745.725
1900.77	720.74
1893.57	740.913
1886.36	691.705
1879.14	678.958
1871.92	723.338
1864.7	656.987
1857.46	709.942
1850.22	736.914
1842.98	686.246
1835.72	737.307
1828.46	697.055
1821.19	710.182
1813.92	697.514
1806.64	691.734
1799.36	715.117
1792.06	687.056
1784.76	713.823
1777.46	656.738
1770.14	654.434
1762.82	674.327
1755.5	687.361
1748.17	620.279
1740.83	672.494
1733.48	629.359
1726.13	710.361
1718.77	667.268
1711.4	639.521
1704.03	593.18
1696.65	604.493
1689.26	588.718
1681.87	621.986
1674.47	631.551
1667.06	630.976
1659.65	595.005
1652.23	650.036
1644.8	671.315
1637.37	611.87
1629.93	611.312
1622.48	676.192
1615.03	593.432
1607.57	651.51
1600.1	722.866
1592.63	805.794
1585.15	664.757
1577.66	625.769
1570.16	605.19
1562.66	594.642
1555.15	569.135
1547.64	566.952
1540.11	612.943
1532.59	592.466
1525.05	581.974
1517.51	568.188
1509.96	532.912
1502.4	542.344
1494.83	593.057
1487.26	597.463
1479.69	545.797
1472.1	565.064
1464.51	544.794
1456.91	547.581
1449.3	466.576
1441.69	533.443
1434.07	583.787
1426.45	496.417
1418.81	528.696
1411.17	523.302
1403.52	544.059
1395.87	558.248
1388.21	547.948
1380.54	496.934
1372.86	496.475
1365.18	549.683
1357.49	490.683
1349.79	477.243
1342.08	496.263
1334.37	507.145
1326.65	527.72
1318.93	469.009
1311.19	433.027
1303.45	461.683
1295.7	449.965
1287.95	480.162
1280.19	445.911
1272.42	422.981
1264.64	437.049
1256.86	459.118
1249.07	473.125
1241.27	488.709
1233.46	401.809
1225.65	439.819
1217.83	447.399
1210	432.615
1202.17	403.505
1194.33	417.469
1186.48	455.286
1178.62	445.319
1170.76	417.891
1162.88	423.851
1155.01	453.589
1147.12	405.63
1139.23	413.166
1131.33	408.035
1123.42	374.473
1115.5	370.965
1107.58	381.658
1099.65	367.12
1091.71	385.666
1083.77	388.45
1075.81	381.801
1067.85	398.71
1059.89	362.266
1051.91	382.294
1043.93	325.584
1035.94	342.481
1027.94	371.844
1019.93	418.322
1011.92	336.838
1003.9	381.702
999.086	417.3

File: d2_2.txt
2999.69	535.214
2993.45	544.865
2987.2	598.44
2980.96	619.928
2974.7	559.458
2968.44	560.977
2962.18	560.498
2955.91	635.753
2949.63	601.359
2943.35	624.72
2937.07	650.028
2930.77	562.082
2924.48	593.353
2918.18	533.363
2911.87	580.453
2905.56	613.605
2899.24	561.661
2892.91	632.315
2886.58	590.314
2880.25	595.726
2873.91	589.303
2867.56	573.044
2861.21	480.078
2854.86	532.745
2848.49	589.248
2842.13	580.893
2835.75	523.531
2829.38	542.672
2822.99	534.377
2816.6	496.758
2810.21	554.953
2803.81	521.285
2797.4	550.098
2790.99	545.726
2784.57	527.73
2778.15	525.33
2771.72	559.87
2765.29	611.83
2758.85	551.143
2752.41	525.461
2745.96	573.44
2739.5	553.589
2733.04	541.508
2726.57	627.993
2720.1	575.324
2713.62	594.116
2707.14	568.548
2700.65	656.635
2694.16	681.079
2687.66	601.676
2681.15	658.774
2674.64	619.824
2668.12	632.709
2661.6	574.692
2655.07	562.71
2648.53	545.011
2641.99	510.147
2635.45	507.795
2628.9	513.077
2622.34	541.217
2615.78	500.762
2609.21	479.401
2602.63	534.106
2596.06	545.036
2589.47	523.69
2582.88	494.798
2576.28	536.039
2569.68	529.895
2563.07	472.709
2556.46	491.189
2549.84	537.949
2543.21	454.501
2536.58	423.957
2529.94	487.596
2523.3	509.742
2516.65	467.952
2509.99	512.608
2503.33	433.367
2496.67	453.607
2489.99	456.956
2483.32	447.201
2476.63	461.766
2469.94	470.701
2463.25	466.557
2456.55	456.826
2449.84	476.918
2443.12	444.858
2436.41	485.381
2429.68	512.827
2422.95	447.402
2416.21	476.687
2409.47	489.241
2402.72	483.257
2395.97	449.534
2389.21	463.925
2382.44	463.518
2375.67	466.8
2368.89	451.643
2362.1	430.985
2355.31	439.807
2348.52	387.94
2341.72	439.033
2334.91	451.494
2328.09	509.775
2321.27	448.867
2314.45	463.115
2307.61	427.958
2300.77	420.271
2293.93	425.377
2287.08	465.131
2280.22	391.823
2273.36	391.476
2266.49	474.814
2259.62	425.319
2252.74	435.839
2245.85	428.196
2238.96	397
2232.06	443.739
2225.15	454.203
2218.24	415.834
2211.32	379.338
2204.4	447.583
2197.47	441.776
2190.53	403.551
2183.59	392.393
2176.64	395.642
2169.69	461.771
2162.73	373.397
2155.76	441.222
2148.79	440.829
2141.81	435.066
2134.82	395.325
2127.83	389.612
2120.83	339.268
2113.83	376.43
2106.82	406.397
2099.8	420.281
2092.78	384.321
2085.75	366.202
2078.72	356.995
2071.67	415.235
2064.63	400.681
2057.57	371.981
2050.51	398.195
2043.44	403.144
2036.37	356.852
2029.29	400.658
2022.21	393.246
2015.11	371.752
2008.02	357.337
2000.91	367.569
1993.8	360.211
1986.68	373.933
1979.56	384.122
1972.43	401.301
1965.29	406.194
1958.15	370.844
1951	367.016
1943.84	333.51
1936.68	331.465
1929.51	418.317
1922.33	367.44
1915.15	372.329
1907.96	411.974
1900.77	354.292
1893.57	333.151
1886.36	367.522
1879.14	419.152
1871.92	392.817
1864.7	357.885
1857.46	329.925
1850.22	339.982
1842.98	365.538
1835.72	318.696
1828.46	323.571
1821.19	364.549
1813.92	335.013
1806.64	394.786
1799.36	296.679
1792.06	327.251
1784.76	335.514
1777.46	324.948
1770.14	334.906
1762.82	322.653
1755.5	361.589
1748.17	291.395
1740.83	291.13
1733.48	331.689
1726.13	316.093
1718.77	310.713
1711.4	347.75
1704.03	306.759
1696.65	301.4
1689.26	333.268
1681.87	383.671
1674.47	307.333
1667.06	286.807
1659.65	333.742
1652.23	319.966
1644.8	361.736
1637.37	398.388
1629.93	515.584
1622.48	503.368
1615.03	484.469
1607.57	510.824
1600.1	508.684
1592.63	543.326
1585.15	567.883
1577.66	412.173
1570.16	423.466
1562.66	384.768
1555.15	349.469
1547.64	399.028
1540.11	372.084
1532.59	361.786
1525.05	331.609
1517.51	286.579
1509.96	322.726
1502.4	332.351
1494.83	312.222
1487.26	316.886
1479.69	339.68
1472.1	281.708
1464.51	316.013
1456.91	274.613
1449.3	299.003
1441.69	343.045
1434.07	301.732
1426.45	312.923
1418.81	315.908
1411.17	335.241
1403.52	362.706
1395.87	381.959
1388.21	375.083
1380.54	470.865
1372.86	512.753
1365.18	629.371
1357.49	737.649
1349.79	810.014
1342.08	708.715
1334.37	539.551
1326.65	482.394
1318.93	383.294
1311.19	336.081
1303.45	345.455
1295.7	274.172
1287.95	341.592
1280.19	275.274
1272.42	287.884
1264.64	276.37
1256.86	260.06
1249.07	263.026
1241.27	222.723
1233.46	302.557
1225.65	251.097
1217.83	260.45
1210	244.244
1202.17	237.637
1194.33	219.888
1186.48	194.213
1178.62	214.707
1170.76	236.752
1162.88	238.118
1155.01	223.622
1147.12	232.92
1139.23	242.201
1131.33	237.23
1123.42	208.567
1115.5	216.265
1107.58	228.679
1099.65	181.197
1091.71	184.175
1083.77	199.729
1075.81	223.11
1067.85	218.192
1059.89	185.054
1051.91	181.746
1043.93	214.447
1035.94	226.757
1027.94	245.292
1019.93	237.257
1011.92	226.118
1003.9	213.442
999.086	286.504

File: d3_1.txt
2999.69	615.395
2993.45	578.919
2987.2	616.454
2980.96	579.933
2974.7	579.438
2968.44	604.897
2962.18	608.37
2955.91	601.872
2949.63	601.359
2943.35	608.803
2937.07	612.259
2930.77	528.318
2924.48	547.711
2918.18	604.743
2911.87	548.755
2905.56	609.647
2899.24	567.594
2892.91	586.868
2886.58	594.262
2880.25	568.11
2873.91	508.495
2867.56	557.29
2861.21	619.773
2854.86	503.257
2848.49	555.857
2842.13	557.343
2835.75	523.531
2829.38	556.386
2822.99	577.44
2816.6	543.696
2810.21	586.218
2803.81	574
2797.4	548.147
2790.99	534.032
2784.57	510.204
2778.15	540.896
2771.72	614.301
2765.29	528.31
2758.85	523.974
2752.41	601.081
2745.96	563.754
2739.5	561.332
2733.04	570.517
2726.57	541.04
2720.1	604.283
2713.62	574.827
2707.14	664.912
2700.65	637.379
2694.16	713.786
2687.66	643.966
2681.15	664.536
2674.64	610.23
2668.12	577.107
2661.6	568.945
2655.07	558.882
2648.53	579.433
2641.99	575.109
2635.45	500.159
2628.9	576.019
2622.34	520.254
2615.78	548.363
2609.21	536.473
2602.63	536.006
2596.06	533.642
2589.47	514.203
2582.88	494.798
2576.28	488.686
2569.68	601.809
2563.07	525.652
2556.46	453.405
2549.84	449.235
2543.21	499.763
2536.58	482.369
2529.94	513.953
2523.3	536.076
2516.65	469.832
2509.99	523.874
2503.33	482.144
2496.67	477.974
2489.99	468.192
2483.32	495.85
2476.63	465.505
2469.94	472.569
2463.25	503.881
2456.55	527.68
2449.84	499.274
2443.12	500.698
2436.41	487.241
2429.68	460.801
2422.95	488.244
2416.21	567.572
2409.47	496.653
2402.72	470.296
2395.97	458.783
2389.21	467.622
2382.44	457.978
2375.67	453.885
2368.89	440.582
2362.1	465.98
2355.31	449.008
2348.52	441.259
2341.72	475.772
2334.91	431.305
2328.09	434.593
2321.27	470.852
2314.45	448.471
2307.61	457.22
2300.77	372.762
2293.93	434.505
2287.08	503.435
2280.22	426.449
2273.36	438.818
2266.49	469.357
2259.62	436.225
2252.74	415.863
2245.85	468.113
2238.96	444.132
2232.06	414.76
2225.15	457.823
2218.24	446.569
2211.32	419.078
2204.4	413.292
2197.47	421.941
2190.53	479.217
2183.59	370.794
2176.64	393.844
2169.69	411.462
2162.73	382.373
2155.76	387.414
2148.79	388.862
2141.81	427.905
2134.82	397.114
2127.83	453.952
2120.83	389.265
2113.83	408.543
2106.82	397.484
2099.8	370.417
2092.78	412.789
2085.75	394.645
2078.72	392.516
2071.67	415.235
2064.63	356.358
2057.57	426.893
2050.51	412.353
2043.44	397.84
2036.37	358.619
2029.29	393.598
2022.21	349.16
2015.11	389.371
2008.02	359.097
2000.91	404.502
1993.8	411.168
1986.68	405.533
1979.56	364.828
1972.43	406.558
1965.29	392.187
1958.15	388.336
1951	380.997
1943.84	371.924
1936.68	390.78
1929.51	374.742
1922.33	367.44
1915.15	356.67
1907.96	358.087
1900.77	364.712
1893.57	350.502
1886.36	367.522
1879.14	398.368
1871.92	340.903
1864.7	326.765
1857.46	397.291
1850.22	352.062
1842.98	337.95
1835.72	353.149
1828.46	339.061
1821.19	337.035
1813.92	324.705
1806.64	370.756
1799.36	294.964
1792.06	356.378
1784.76	328.667
1777.46	342.051
1770.14	329.78
1762.82	363.624
1755.5	388.879
1748.17	322.068
1740.83	323.478
1733.48	355.503
1726.13	343.284
1718.77	329.389
1711.4	295.163
1704.03	318.622
1696.65	326.799
1689.26	351.877
1681.87	285.64
1674.47	310.71
1667.06	349.23
1659.65	323.629
1652.23	346.91
1644.8	338.181
1637.37	383.259
1629.93	406.421
1622.48	498.335
1615.03	472.734
1607.57	440.481
1600.1	542.15
1592.63	503.204
1585.15	481.03
1577.66	433.866
1570.16	386.788
1562.66	391.431
1555.15	357.79
1547.64	345.824
1540.11	382.051
1532.59	338.552
1525.05	301.765
1517.51	324.679
1509.96	278.041
1502.4	314.162
1494.83	330.394
1487.26	303.683
1479.69	342.978
1472.1	392.085
1464.51	279.803
1456.91	300.923
1449.3	317.075
1441.69	295.445
1434.07	306.652
1426.45	339.136
1418.81	330.64
1411.17	327.064
1403.52	352.903
1395.87	349.313
1388.21	363.668
1380.54	356.815
1372.86	457.408
1365.18	513.905
1357.49	560.548
1349.79	571.393
1342.08	517.346
1334.37	521.728
1326.65	433.831
1318.93	359.035
1311.19	418.485
1303.45	295.413
1295.7	353.199
1287.95	294.865
1280.19	262.395
1272.42	241.244
1264.64	295.651
1256.86	247.217
1249.07	277.46
1241.27	262.781
1233.46	256.133
1225.65	249.498
1217.83	294.005
1210	220.299
1202.17	258.371
1194.33	254.943
1186.48	257.889
1178.62	244.925
1170.76	235.163
1162.88	219.069
1155.01	185.559
1147.12	218.66
1139.23	224.788
1131.33	202.436
1123.42	206.987
1115.5	197.322
1107.58	187.675
1099.65	228.465
1091.71	266.031
1083.77	224.892
1075.81	248.249
1067.85	171.1
1059.89	203.873
1051.91	219.349
1043.93	209.751
1035.94	214.246
1027.94	259.353
1019.93	204.478
1011.92	221.44
1003.9	222.789
999.086	267.819