Folder: GFET-covid-flu/Akinwande-lab-measurements/raman/data/Raman 25-12-11 finished-wafer-1 (part 2)

File: d3_2.txt
2999.69	956.168
2993.45	1035.64
2987.2	1004.74
2980.96	1079.87
2974.7	1009.02
2968.44	1018.14
2962.18	1033.23
2955.91	1020.39
2949.63	947.837
2943.35	966.923
2937.07	1025.73
2930.77	987.12
2924.48	1010.09
2918.18	967.588
2911.87	944.969
2905.56	1009.48
2899.24	1040.26
2892.91	924.761
2886.58	1004.92
2880.25	982.356
2873.91	997.282
2867.56	980.673
2861.21	920.806
2854.86	977.026
2848.49	1041.01
2842.13	959.65
2835.75	941.179
2829.38	936.453
2822.99	986.541
2816.6	987.649
2810.21	935.995
2803.81	907.857
2797.4	981.202
2790.99	947.225
2784.57	1022.36
2778.15	1000.07
2771.72	938.948
2765.29	967.274
2758.85	962.559
2752.41	971.424
2745.96	1017.08
2739.5	996.847
2733.04	1021.13
2726.57	1055.03
2720.1	1152.58
2713.62	1203.66
2707.14	1273.93
2700.65	1363.34
2694.16	1373.7
2687.66	1334.07
2681.15	1206.15
2674.64	1168.65
2668.12	1069.85
2661.6	1026.78
2655.07	1025.89
2648.53	994.406
2641.99	947.688
2635.45	986.955
2628.9	907.898
2622.34	949.035
2615.78	885.378
2609.21	934.071
2602.63	893.344
2596.06	928.65
2589.47	895.587
2582.88	934.619
2576.28	924.335
2569.68	934.886
2563.07	886.801
2556.46	929.48
2549.84	851.281
2543.21	912.774
2536.58	904.441
2529.94	849.057
2523.3	887.817
2516.65	905.835
2509.99	856.225
2503.33	941.775
2496.67	849.107
2489.99	904.548
2483.32	886.917
2476.63	873.055
2469.94	881.631
2463.25	906.987
2456.55	930.432
2449.84	840.196
2443.12	899.022
2436.41	926.13
2429.68	847.279
2422.95	900.373
2416.21	869.907
2409.47	813.548
2402.72	946.146
2395.97	917.567
2389.21	852.07
2382.44	866.095
2375.67	893.01
2368.89	796.366
2362.1	814.083
2355.31	875.934
2348.52	801.62
2341.72	874.393
2334.91	833.245
2328.09	854.516
2321.27	840.938
2314.45	840.197
2307.61	868.718
2300.77	856.988
2293.93	852.58
2287.08	782.514
2280.22	792.757
2273.36	828.473
2266.49	804.092
2259.62	785.205
2252.74	802.67
2245.85	783.816
2238.96	815.753
2232.06	775.185
2225.15	810.69
2218.24	833.475
2211.32	823.705
2204.4	880.727
2197.47	782.575
2190.53	828.722
2183.59	799.187
2176.64	794.881
2169.69	812.142
2162.73	755.77
2155.76	798.145
2148.79	788.475
2141.81	780.613
2134.82	754.875
2127.83	793.522
2120.83	851.741
2113.83	767.133
2106.82	746.843
2099.8	723.026
2092.78	770.422
2085.75	700.405
2078.72	726.422
2071.67	729.323
2064.63	746.401
2057.57	729.792
2050.51	753.917
2043.44	746.17
2036.37	738.437
2029.29	718.361
2022.21	670.106
2015.11	702.981
2008.02	707.633
2000.91	766.795
1993.8	687.037
1986.68	653.066
1979.56	670.02
1972.43	672.924
1965.29	770.367
1958.15	622.738
1951	671.114
1943.84	715.911
1936.68	715.267
1929.51	671.05
1922.33	705.275
1915.15	685.502
1907.96	686.624
1900.77	724.214
1893.57	688.858
1886.36	686.504
1879.14	663.369
1871.92	647.197
1864.7	741.704
1857.46	633.939
1850.22	650.625
1842.98	684.522
1835.72	654.618
1828.46	652.306
1821.19	679.23
1813.92	664.872
1806.64	633.374
1799.36	625.941
1792.06	651.075
1784.76	624.809
1777.46	538.73
1770.14	615.134
1762.82	629.941
1755.5	627.664
1748.17	642.432
1740.83	623.121
1733.48	656.575
1726.13	613.493
1718.77	611.238
1711.4	569.971
1704.03	623.686
1696.65	587.561
1689.26	563.342
1681.87	623.676
1674.47	612.976
1667.06	603.983
1659.65	576.464
1652.23	597.831
1644.8	578.778
1637.37	573.208
1629.93	594.517
1622.48	599.008
1615.03	573.316
1607.57	638.111
1600.1	667.647
1592.63	738.923
1585.15	674.779
1577.66	680.836
1570.16	581.849
1562.66	574.654
1555.15	587.441
1547.64	585.24
1540.11	536.532
1532.59	531.062
1525.05	528.917
1517.51	554.936
1509.96	569.322
1502.4	606.83
1494.83	488.983
1487.26	587.56
1479.69	524.361
1472.1	525.526
1464.51	569.482
1456.91	552.514
1449.3	510.934
1441.69	543.291
1434.07	544.43
1426.45	543.929
1418.81	510.691
1411.17	472.607
1403.52	491.777
1395.87	530.499
1388.21	502.285
1380.54	542.554
1372.86	496.475
1365.18	509.026
1357.49	552.424
1349.79	558.407
1342.08	530.32
1334.37	486.082
1326.65	498.582
1318.93	472.244
1311.19	462.111
1303.45	464.912
1295.7	469.319
1287.95	473.717
1280.19	434.643
1272.42	488.921
1264.64	464.365
1256.86	443.065
1249.07	415.388
1241.27	443.844
1233.46	417.817
1225.65	404.634
1217.83	405.855
1210	435.808
1202.17	435.402
1194.33	438.183
1186.48	420.264
1178.62	386.473
1170.76	413.124
1162.88	444.488
1155.01	364.774
1147.12	449.996
1139.23	436.911
1131.33	411.198
1123.42	363.412
1115.5	386.751
1107.58	362.733
1099.65	390.754
1091.71	425.019
1083.77	339.697
1075.81	369.231
1067.85	315.515
1059.89	365.403
1051.91	358.793
1043.93	334.976
1035.94	337.789
1027.94	417.153
1019.93	340.277
1011.92	360.229
1003.9	383.26
999.086	359.687

File: d4_1.txt
2999.69	902.045
2993.45	991.574
2987.2	914.673
2980.96	953.889
2974.7	907.121
2968.44	1008.16
2962.18	1029.24
2955.91	974.555
2949.63	947.837
2943.35	962.944
2937.07	930.316
2930.77	937.466
2924.48	873.162
2918.18	910.088
2911.87	990.533
2905.56	961.975
2899.24	921.598
2892.91	968.233
2886.58	918.046
2880.25	893.589
2873.91	902.678
2867.56	935.381
2861.21	875.553
2854.86	857.109
2848.49	887.801
2842.13	908.626
2835.75	819.61
2829.38	909.025
2822.99	894.542
2816.6	905.508
2810.21	883.235
2803.81	901.999
2797.4	850.505
2790.99	925.785
2784.57	880.2
2778.15	896.953
2771.72	923.396
2765.29	907.062
2758.85	912.102
2752.41	901.621
2745.96	838.85
2739.5	880.71
2733.04	922.497
2726.57	915.903
2720.1	857.194
2713.62	958.688
2707.14	1017.61
2700.65	1049.46
2694.16	969.671
2687.66	995.745
2681.15	991.042
2674.64	926.858
2668.12	906.883
2661.6	948.241
2655.07	815.355
2648.53	868.193
2641.99	875.083
2635.45	872.415
2628.9	846.863
2622.34	844.222
2615.78	854.913
2609.21	779.978
2602.63	838.223
2596.06	883.072
2589.47	872.817
2582.88	798.123
2576.28	878.876
2569.68	870.542
2563.07	813.059
2556.46	801.015
2549.84	807.868
2543.21	771.332
2536.58	876.178
2529.94	833.996
2523.3	795.649
2516.65	905.835
2509.99	854.347
2503.33	761.675
2496.67	792.874
2489.99	814.655
2483.32	761.551
2476.63	770.233
2469.94	711.655
2463.25	802.478
2456.55	803.64
2449.84	793.622
2443.12	805.956
2436.41	810.829
2429.68	785.963
2422.95	761.14
2416.21	782.731
2409.47	804.282
2402.72	825.795
2395.97	776.972
2389.21	707.902
2382.44	827.314
2375.67	809.982
2368.89	759.497
2362.1	710.942
2355.31	745.28
2348.52	774.041
2341.72	716.414
2334.91	770.843
2328.09	748.16
2321.27	751.165
2314.45	766.977
2307.61	720.578
2300.77	730.906
2293.93	799.636
2287.08	680.368
2280.22	679.767
2273.36	759.282
2266.49	780.442
2259.62	703.413
2252.74	704.607
2245.85	776.559
2238.96	716.05
2232.06	726.283
2225.15	685.829
2218.24	712.341
2211.32	715.323
2204.4	694.836
2197.47	737.496
2190.53	720.628
2183.59	669.589
2176.64	773.3
2169.69	668.4
2162.73	703.71
2155.76	713.846
2148.79	747.26
2141.81	687.512
2134.82	660.068
2127.83	741.693
2120.83	667.822
2113.83	710.044
2106.82	689.805
2099.8	671.381
2092.78	638.756
2085.75	680.851
2078.72	699.78
2071.67	677.862
2064.63	648.89
2057.57	641.225
2050.51	628.264
2043.44	641.848
2036.37	696.039
2029.29	658.351
2022.21	671.869
2015.11	660.697
2008.02	624.9
2000.91	610.27
1993.8	623.781
1986.68	637.266
1979.56	591.091
1972.43	655.4
1965.29	590.031
1958.15	629.735
1951	648.394
1943.84	619.874
1936.68	553.024
1929.51	583.9
1922.33	632.135
1915.15	650.705
1907.96	634.475
1900.77	583.539
1893.57	581.278
1886.36	622.361
1879.14	595.82
1871.92	572.787
1864.7	632.782
1857.46	611.483
1850.22	529.819
1842.98	546.583
1835.72	604.661
1828.46	557.644
1821.19	619.045
1813.92	621.921
1806.64	549.267
1799.36	579.639
1792.06	524.287
1784.76	580.302
1777.46	545.571
1770.14	553.621
1762.82	563.362
1755.5	561.145
1748.17	552.116
1740.83	534.59
1733.48	556.218
1726.13	559.112
1718.77	533.135
1711.4	532.651
1704.03	538.946
1696.65	518.137
1689.26	556.575
1681.87	550.998
1674.47	535.299
1667.06	558.431
1659.65	541.067
1652.23	562.466
1644.8	555.223
1637.37	621.955
1629.93	589.479
1622.48	630.888
1615.03	561.582
1607.57	597.915
1600.1	629.162
1592.63	650.32
1585.15	641.374
1577.66	567.364
1570.16	543.504
1562.66	513.024
1555.15	537.517
1547.64	507.097
1540.11	471.75
1532.59	545.998
1525.05	530.575
1517.51	508.553
1509.96	474.987
1502.4	491.085
1494.83	515.414
1487.26	448.923
1479.69	428.723
1472.1	461.277
1464.51	469.082
1456.91	478.517
1449.3	507.648
1441.69	449.733
1434.07	465.718
1426.45	432.522
1418.81	410.844
1411.17	441.536
1403.52	442.763
1395.87	442.354
1388.21	459.885
1380.54	475.753
1372.86	511.125
1365.18	562.693
1357.49	674.283
1349.79	706.125
1342.08	634.113
1334.37	515.247
1326.65	537.432
1318.93	480.33
1311.19	450.801
1303.45	440.697
1295.7	408.033
1287.95	406.043
1280.19	408.886
1272.42	382.774
1264.64	406.52
1256.86	361.194
1249.07	349.632
1241.27	402.183
1233.46	371.393
1225.65	420.627
1217.83	343.539
1210	383.128
1202.17	350.874
1194.33	360.107
1186.48	362.955
1178.62	343.531
1170.76	395.646
1162.88	342.891
1155.01	374.29
1147.12	377.109
1139.23	351.429
1131.33	338.448
1123.42	317.591
1115.5	325.187
1107.58	328.036
1099.65	346.637
1091.71	351.035
1083.77	342.842
1075.81	325.238
1067.85	313.945
1059.89	332.469
1051.91	338.424
1043.93	377.24
1035.94	362.811
1027.94	315.599
1019.93	309.059
1011.92	335.278
1003.9	364.564
999.086	347.231

File: d5_1.txt
2999.69	944.141
2993.45	977.552
2987.2	1036.76
2980.96	1035.88
2974.7	963.066
2968.44	974.223
2962.18	935.494
2955.91	942.668
2949.63	971.732
2943.35	951.007
2937.07	1053.56
2930.77	969.244
2924.48	1023.98
2918.18	985.433
2911.87	978.647
2905.56	979.789
2899.24	917.643
2892.91	932.665
2886.58	933.841
2880.25	917.26
2873.91	892.823
2867.56	1047.63
2861.21	952.287
2854.86	959.333
2848.49	978.152
2842.13	977.313
2835.75	958.826
2829.38	979.553
2822.99	933.691
2816.6	944.623
2810.21	893.005
2803.81	1030.86
2797.4	944.139
2790.99	931.632
2784.57	919.146
2778.15	889.17
2771.72	909.788
2765.29	889.581
2758.85	917.924
2752.41	882.231
2745.96	933.777
2739.5	967.813
2733.04	965.044
2726.57	933.294
2720.1	1032.88
2713.62	1114.93
2707.14	1106.26
2700.65	1238.17
2694.16	1325.6
2687.66	1266.79
2681.15	1267.61
2674.64	1162.89
2668.12	1052.6
2661.6	955.904
2655.07	978.043
2648.53	891.141
2641.99	920.939
2635.45	908.686
2628.9	881.195
2622.34	914.733
2615.78	931.075
2609.21	905.535
2602.63	842.024
2596.06	869.779
2589.47	821.587
2582.88	854.996
2576.28	825.841
2569.68	925.423
2563.07	839.53
2556.46	920.034
2549.84	870.157
2543.21	842.996
2536.58	793.271
2529.94	815.17
2523.3	846.435
2516.65	856.973
2509.99	886.268
2503.33	787.939
2496.67	834.111
2489.99	827.764
2483.32	808.329
2476.63	831.926
2469.94	834.934
2463.25	836.07
2456.55	809.234
2449.84	849.51
2443.12	778.036
2436.41	840.584
2429.68	808.26
2422.95	761.14
2416.21	779.021
2409.47	839.493
2402.72	820.24
2395.97	784.371
2389.21	822.497
2382.44	818.081
2375.67	787.841
2368.89	731.845
2362.1	786.456
2355.31	774.723
2348.52	849.423
2341.72	712.74
2334.91	794.703
2328.09	795.836
2321.27	771.318
2314.45	750.502
2307.61	771.787
2300.77	825.924
2293.93	781.38
2287.08	744.209
2280.22	769.066
2273.36	2583.74
2266.49	794.996
2259.62	767.029
2252.74	730.03
2245.85	723.941
2238.96	755.931
2232.06	740.772
2225.15	691.258
2218.24	715.957
2211.32	729.774
2204.4	761.612
2197.47	739.299
2190.53	695.406
2183.59	725.388
2176.64	695.97
2169.69	677.384
2162.73	646.264
2155.76	726.401
2148.79	645.116
2141.81	666.027
2134.82	677.956
2127.83	743.48
2120.83	774.959
2113.83	672.579
2106.82	748.625
2099.8	705.218
2092.78	654.769
2085.75	695.072
2078.72	710.437
2071.67	674.313
2064.63	719.807
2057.57	676.652
2050.51	684.896
2043.44	657.761
2036.37	719.004
2029.29	663.646
2022.21	694.794
2015.11	609.603
2008.02	603.776
2000.91	606.753
1993.8	627.295
1986.68	644.288
1979.56	640.203
1972.43	615.095
1965.29	626.799
1958.15	659.472
1951	601.206
1943.84	591.936
1936.68	554.768
1929.51	608.302
1922.33	654.774
1915.15	648.965
1907.96	617.092
1900.77	600.906
1893.57	624.657
1886.36	591.156
1879.14	561.179
1871.92	612.588
1864.7	605.12
1857.46	587.3
1850.22	583.319
1842.98	587.965
1835.72	542.644
1828.46	610.999
1821.19	605.288
1813.92	541.175
1806.64	542.402
1799.36	584.784
1792.06	628.802
1784.76	546.066
1777.46	600.299
1770.14	517.738
1762.82	517.269
1755.5	533.856
1748.17	558.933
1740.83	573.748
1733.48	568.124
1726.13	560.811
1718.77	495.782
1711.4	498.724
1704.03	564.368
1696.65	519.83
1689.26	532.891
1681.87	515.505
1674.47	511.658
1667.06	502.757
1659.65	544.438
1652.23	538.89
1644.8	496.336
1637.37	514.374
1629.93	527.34
1622.48	535.248
1615.03	469.382
1607.57	530.922
1600.1	577.289
1592.63	678.74
1585.15	616.32
1577.66	532.321
1570.16	510.16
1562.66	479.711
1555.15	495.913
1547.64	527.049
1540.11	528.227
1532.59	456.381
1525.05	462.595
1517.51	520.149
1509.96	508.087
1502.4	502.66
1494.83	459.247
1487.26	402.71
1479.69	458.404
1472.1	443.155
1464.51	459.207
1456.91	435.763
1449.3	402.504
1441.69	441.526
1434.07	483.756
1426.45	424.33
1418.81	420.665
1411.17	444.807
1403.52	436.228
1395.87	430.928
1388.21	437.054
1380.54	392.659
1372.86	455.78
1365.18	400.065
1357.49	480.934
1349.79	433.414
1342.08	439.501
1334.37	437.473
1326.65	396.599
1318.93	402.701
1311.19	403.943
1303.45	377.741
1295.7	404.808
1287.95	380.263
1280.19	421.764
1272.42	379.557
1264.64	356.71
1256.86	361.194
1249.07	402.558
1241.27	350.909
1233.46	347.381
1225.65	380.644
1217.83	319.571
1210	397.495
1202.17	382.771
1194.33	328.239
1186.48	380.466
1178.62	341.941
1170.76	330.499
1162.88	325.429
1155.01	294.991
1147.12	362.849
1139.23	332.433
1131.33	321.051
1123.42	300.21
1115.5	320.451
1107.58	310.688
1099.65	329.305
1091.71	349.46
1083.77	355.424
1075.81	268.675
1067.85	288.829
1059.89	274.444
1051.91	289.854
1043.93	281.756
1035.94	295.566
1027.94	295.288
1019.93	307.498
1011.92	364.908
1003.9	341.195
999.086	297.404

File: d5_2.txt
2999.69	1379.13
2993.45	1390.21
2987.2	1348.99
2980.96	1283.85
2974.7	1328.71
2968.44	1295.64
2962.18	1320.46
2955.91	1303.39
2949.63	1292.32
2943.35	1366.82
2937.07	1403.43
2930.77	1328.74
2924.48	1329.59
2918.18	1395.86
2911.87	1357.03
2905.56	1375.66
2899.24	1295.38
2892.91	1321.93
2886.58	1324.75
2880.25	1329.53
2873.91	1371.75
2867.56	1315.44
2861.21	1241.51
2854.86	1289.6
2848.49	1349.38
2842.13	1257.95
2835.75	1384.32
2829.38	1261.66
2822.99	1289.94
2816.6	1325.99
2810.21	1381.52
2803.81	1386.19
2797.4	1324.53
2790.99	1257.12
2784.57	1273.56
2778.15	1262.74
2771.72	1214.99
2765.29	1305.24
2758.85	1290.53
2752.41	1215.73
2745.96	1303.8
2739.5	1242.67
2733.04	1404.05
2726.57	1424.09
2720.1	1353.36
2713.62	1539.3
2707.14	1574.59
2700.65	1719.58
2694.16	1810.44
2687.66	1799.26
2681.15	1615.24
2674.64	1542.84
2668.12	1407.3
2661.6	1363.93
2655.07	1293.85
2648.53	1258.31
2641.99	1283.96
2635.45	1305.76
2628.9	1268.39
2622.34	1219.64
2615.78	1256.67
2609.21	1160.45
2602.63	1186.06
2596.06	1181.23
2589.47	1202.97
2582.88	1205.72
2576.28	1216.03
2569.68	1192.26
2563.07	1234.71
2556.46	1107.06
2549.84	1206.14
2543.21	1133.42
2536.58	1153.16
2529.94	1016.61
2523.3	1137.99
2516.65	1133.23
2509.99	1224.25
2503.33	1260.7
2496.67	1177.13
2489.99	1131.15
2483.32	1137.65
2476.63	1082.44
2469.94	1201.04
2463.25	1119.74
2456.55	1243.68
2449.84	1142
2443.12	1157.75
2436.41	1147.43
2429.68	1176.16
2422.95	1143.57
2416.21	1142.56
2409.47	1110.06
2402.72	1101.68
2395.97	1060.01
2389.21	1136.71
2382.44	1098.78
2375.67	1136.56
2368.89	1069.19
2362.1	1116.14
2355.31	1021.31
2348.52	1117.86
2341.72	1085.64
2334.91	1044.31
2328.09	1094.73
2321.27	1027.81
2314.45	1087.31
2307.61	1064.41
2300.77	1056.16
2293.93	1011.41
2287.08	1041.53
2280.22	1024.21
2273.36	1074.28
2266.49	962.363
2259.62	1086.93
2252.74	1002.43
2245.85	1039.65
2238.96	1064.1
2232.06	1007.02
2225.15	1051.36
2218.24	1052.24
2211.32	1020.6
2204.4	1005.26
2197.47	1022.4
2190.53	1025.09
2183.59	998.983
2176.64	971.121
2169.69	1060.1
2162.73	1010.69
2155.76	964.948
2148.79	1012.47
2141.81	1007.99
2134.82	1005.31
2127.83	900.754
2120.83	928.523
2113.83	993.705
2106.82	905.48
2099.8	979.469
2092.78	955.465
2085.75	963.502
2078.72	998.164
2071.67	981.303
2064.63	932.558
2057.57	967.152
2050.51	897.267
2043.44	910.611
2036.37	904.497
2029.29	926.633
2022.21	869.374
2015.11	910.881
2008.02	867.818
2000.91	893.422
1993.8	838.15
1986.68	839.155
1979.56	903.3
1972.43	863.937
1965.29	924.441
1958.15	865.885
1951	824.911
1943.84	869.569
1936.68	846.109
1929.51	807.003
1922.33	839.364
1915.15	859.487
1907.96	890.003
1900.77	866.625
1893.57	851.963
1886.36	887.601
1879.14	800.2
1871.92	792.557
1864.7	850.625
1857.46	822.22
1850.22	824.93
1842.98	825.91
1835.72	728.694
1828.46	822.697
1821.19	766.928
1813.92	798.877
1806.64	777.557
1799.36	842.02
1792.06	772.724
1784.76	794.278
1777.46	776.456
1770.14	750.122
1762.82	749.442
1755.5	753.879
1748.17	773.644
1740.83	786.563
1733.48	746.726
1726.13	703.563
1718.77	711.413
1711.4	741.301
1704.03	760.965
1696.65	760.273
1689.26	718.98
1681.87	714.946
1674.47	712.606
1667.06	693.399
1659.65	728.164
1652.23	751.077
1644.8	728.52
1637.37	704.323
1629.93	675.13
1622.48	736.596
1615.03	715.807
1607.57	731.902
1600.1	768.046
1592.63	917.803
1585.15	845.144
1577.66	745.916
1570.16	710.223
1562.66	691.251
1555.15	722.236
1547.64	671.696
1540.11	687.692
1532.59	652.21
1525.05	688.089
1517.51	631.136
1509.96	673.587
1502.4	689.504
1494.83	612.88
1487.26	650.277
1479.69	682.659
1472.1	680.384
1464.51	636.964
1456.91	661.044
1449.3	581.578
1441.69	618.794
1434.07	605.105
1426.45	638.952
1418.81	594.169
1411.17	618.151
1403.52	615.947
1395.87	618.643
1388.21	591.979
1380.54	526.261
1372.86	555.075
1365.18	606.603
1357.49	591.419
1349.79	607.105
1342.08	614.652
1334.37	594.64
1326.65	574.664
1318.93	561.194
1311.19	557.442
1303.45	521.411
1295.7	567.698
1287.95	543.002
1280.19	508.693
1272.42	511.437
1264.64	517.389
1256.86	516.909
1249.07	546.901
1241.27	522.357
1233.46	470.645
1225.65	522.985
1217.83	460.182
1210	482.103
1202.17	492.818
1194.33	476.425
1186.48	474.389
1178.62	500.983
1170.76	440.136
1162.88	492.112
1155.01	412.353
1147.12	527.636
1139.23	421.081
1131.33	464.971
1123.42	491.397
1115.5	464.101
1107.58	397.429
1099.65	453.779
1091.71	464.373
1083.77	377.441
1075.81	413.225
1067.85	411.268
1059.89	385.79
1051.91	416.763
1043.93	410.111
1035.94	450.386
1027.94	428.089
1019.93	419.883
1011.92	460.033
1003.9	442.463
999.086	460.898

File: Si_test.txt
992.106	18.656
988.89	10.8808
985.672	18.6463
982.454	7.76661
979.234	15.5278
976.013	21.7314
972.791	13.9653
969.568	13.9604
966.344	7.7531
963.118	10.8505
959.892	18.5944
956.664	17.0389
953.436	1.54844
950.206	-4.6437
946.975	18.5682
943.742	10.8276
940.509	-3.09252
937.275	10.82
934.039	4.63549
930.802	4.63384
927.564	10.8084
924.325	12.3481
921.085	7.7148
917.844	-1.54241
914.601	16.9604
911.357	-1.5413
908.112	-9.2445
904.866	-1.5402
901.619	9.23785
898.371	3.07817
895.121	3.07706
891.871	4.61393
888.619	6.14967
885.366	23.0529
882.111	7.68152
878.856	-1.53575
875.599	-4.60556
872.341	4.60388
869.082	-4.6022
865.822	-3.06702
862.561	-3.06589
859.298	1.53239
856.034	0
852.769	7.65632
849.503	10.7149
846.236	3.06028
842.967	6.1183
839.697	9.17407
836.426	13.756
833.154	0
829.881	15.2732
826.606	3.05351
823.33	7.63095
820.053	7.62812
816.775	-1.52506
813.496	12.1959
810.215	-10.6675
806.933	-1.52336
803.65	6.09116
800.366	6.08889
797.08	6.08662
793.793	0
790.505	-6.08207
787.216	-3.0399
783.925	7.5969
780.634	-1.51881
777.341	9.10944
774.046	3.03534
770.751	9.1026
767.454	-1.51653
764.156	3.03192
760.857	15.1539
757.557	15.1482
754.255	21.1994
750.952	9.08204
747.648	3.0262
744.343	6.05012
741.036	12.0957
737.728	-4.53416
734.419	12.0865
731.108	-10.5717
727.797	-7.54833
724.484	-3.01819
721.17	10.5596
717.854	-1.50795
714.537	-6.02949
711.219	10.5476
707.9	9.03734
704.58	-4.51695
701.258	3.01015
697.935	12.036
694.611	4.51178
691.285	4.51005
687.958	10.5194
684.63	7.511
681.301	0
677.97	10.5073
674.638	4.50142
671.305	-1.4999
667.97	0
664.634	-4.49624
661.297	0
657.959	10.4832
654.619	2.99403
651.278	16.4608
647.936	-8.97519
644.593	4.48586
641.248	1.49471
637.902	10.4589
634.554	5.97423
631.206	-2.98596
627.856	7.46202
624.504	0
621.152	11.93
617.798	19.3787
614.443	-1.49009
611.086	22.3428
607.728	8.93364
604.369	7.44181
601.009	13.3901
597.647	-1.48721
594.284	7.43314
590.92	-5.9442
587.554	-1.48547
584.188	-1.4849
580.819	2.96863
577.45	2.96748
574.079	-2.96632
570.707	5.93033
567.333	7.41002
563.959	1.48143
560.582	0
557.205	4.44081
553.826	2.95938
550.446	8.87468
547.065	-2.95707
543.682	8.86774
540.298	-1.47738
536.913	17.7216
533.526	19.1909
530.138	17.7077
526.749	44.2519
523.358	123.857
519.966	252.038
516.572	42.7265
513.178	17.673
509.782	8.83302
506.384	7.35795
502.986	2.94202
499.586	11.7635
496.184	4.40956
492.782	-2.93855
489.378	-4.40609
485.972	19.0855
482.566	2.93508
479.157	13.2026
475.748	10.2647
472.337	7.329
468.925	14.6522
465.512	1.46464
462.097	4.39219
458.681	13.1714
455.263	4.38871
451.844	-5.8493
448.424	-2.92349
445.002	18.9952
441.58	1.46059
438.155	1.46001
434.73	2.91885
431.303	2.9177
427.874	-1.45827
424.444	4.37307
421.013	8.74265
417.581	1.45653
414.147	5.8238
410.712	5.82148
407.275	4.36437
403.837	7.27105
400.398	7.26815
396.957	4.35915
393.515	14.5247
390.072	10.1632
386.627	-1.45131
383.181	10.1551
379.733	1.45015
376.284	14.4957
372.834	-7.24493
369.382	2.89681
365.929	2.89565
362.474	5.78898
359.019	8.67998
355.561	1.44608
352.103	13.0095
348.643	7.2246
345.181	4.33302
341.718	28.8751
338.254	5.7727
334.788	10.0982
331.321	7.21006
327.853	10.09
324.383	7.20424
320.912	2.88053
317.439	5.75874
313.965	-7.19551
310.49	1.43852
307.013	-1.43794
303.535	5.74942
300.055	-1.43677
296.574	1.43619
293.091	2.87121
289.608	0
286.122	1.43444
282.635	2.86771
279.147	1.43327
275.658	8.59613
272.167	10.0247
268.674	4.29456
265.18	0
261.685	0
258.188	-7.14883
254.69	10.0043
251.191	17.1432
247.69	5.71205
244.187	11.4194
240.683	-4.28052
237.178	-2.85251
233.671	-1.42567
230.163	8.55049
226.653	7.12248
223.142	-5.69563
219.63	5.69329
216.116	1.42273
212.6	9.95503
209.083	5.68624
205.565	9.9468
202.045	2.84077
198.524	-5.67918
195.001	0
191.477	14.1862
187.951	-4.25408
184.424	-2.83488
180.896	14.1685
177.366	7.08129
173.834	-2.83133
170.301	5.6603
166.767	4.24346
163.231	4.24168
159.693	9.89311
156.154	-1.41271
152.614	-8.4727
149.072	5.6461
145.529	-1.41093
141.984	1.41034
138.437	5.63898
134.889	-1.40915
131.34	-2.81711
127.789	-4.22388
124.237	15.481
120.683	4.22031
117.128	7.03087
113.571	0
110.012	7.0249
106.452	14.0438
102.891	11.2303
99.328	19.6446
95.7636	-5.61035
92.1976	0
88.6301	-2.80278
85.0611	4.20237
81.4905	15.4021
77.9184	-1.39959
74.3448	-11.1919
70.7696	12.5855
67.1929	-8.38669
63.6146	0
60.0348	-5.5863
56.4535	1.39597
52.8706	2.79073
49.2861	4.18429
45.7001	9.7591
42.1126	19.5097
38.5234	2.78589
34.9327	8.35402
31.3405	0
27.7466	1.39112
24.1512	22.2482
20.5543	11.1192
16.9557	-6.94646