Folder: GFET-covid-flu/Akinwande-lab-measurements/raman/data/Raman 25-10-21 Gr-through-finished-wafer

File: Gr-alox-channel-centerwafer.txt
2999.69	483.095
2993.45	492.782
2987.2	524.386
2980.96	521.939
2974.7	471.543
2968.44	497.093
2962.18	504.648
2955.91	444.429
2949.63	479.892
2943.35	509.326
2937.07	425.401
2930.77	454.83
2924.48	555.648
2918.18	515.518
2911.87	435.835
2905.56	445.359
2899.24	460.799
2892.91	418.909
2886.58	519.239
2880.25	477.37
2873.91	437.543
2867.56	474.583
2861.21	476.143
2854.86	438.384
2848.49	445.864
2842.13	496.506
2835.75	450.982
2829.38	452.554
2822.99	463.909
2816.6	479.157
2810.21	425.985
2803.81	538.857
2797.4	429.154
2790.99	456.071
2784.57	451.784
2778.15	505.874
2771.72	485.998
2765.29	479.752
2758.85	465.754
2752.41	484.742
2745.96	433.955
2739.5	551.653
2733.04	516.366
2726.57	589.347
2720.1	658.34
2713.62	802.443
2707.14	919.314
2700.65	1109.16
2694.16	1096.65
2687.66	1022.66
2681.15	854.677
2674.64	665.879
2668.12	590.528
2661.6	542.126
2655.07	447.871
2648.53	439.834
2641.99	420.346
2635.45	425.708
2628.9	440.597
2622.34	402.101
2615.78	476.01
2609.21	399.501
2602.63	420.062
2596.06	393.11
2589.47	413.64
2582.88	400.009
2576.28	390.191
2569.68	429.593
2563.07	395.184
2556.46	406.175
2549.84	383.171
2543.21	407.354
2536.58	367.429
2529.94	399.113
2523.3	372.432
2516.65	349.555
2509.99	388.681
2503.33	358.325
2496.67	380.505
2489.99	374.554
2483.32	394.809
2476.63	362.682
2469.94	353.026
2463.25	367.647
2456.55	316.981
2449.84	339.059
2443.12	346.207
2436.41	338.465
2429.68	408.775
2422.95	393.565
2416.21	370.962
2409.47	359.518
2402.72	362.905
2395.97	329.288
2389.21	323.454
2382.44	369.337
2375.67	297.055
2368.89	337.349
2362.1	364.68
2355.31	417.725
2348.52	353.007
2341.72	371.066
2334.91	328.526
2328.09	390.583
2321.27	386.575
2314.45	358.777
2307.61	312.738
2300.77	294.19
2293.93	323.141
2287.08	326.503
2280.22	368.131
2273.36	333.21
2266.49	378.396
2259.62	281.729
2252.74	341.407
2245.85	339.291
2238.96	322.676
2232.06	289.789
2225.15	334.771
2218.24	307.355
2211.32	350.436
2204.4	315.835
2197.47	310.145
2190.53	302.664
2183.59	289.795
2176.64	325.505
2169.69	350.371
2162.73	326.723
2155.76	269.038
2148.79	333.31
2141.81	295.415
2134.82	261.165
2127.83	307.4
2120.83	337.482
2113.83	337.182
2106.82	276.278
2099.8	304.526
2092.78	277.565
2085.75	286.206
2078.72	298.384
2071.67	267.951
2064.63	306.716
2057.57	244.445
2050.51	302.629
2043.44	277.604
2036.37	293.255
2029.29	232.982
2022.21	294.494
2015.11	258.993
2008.02	281.645
2000.91	270.84
1993.8	260.055
1986.68	215.933
1979.56	273.621
1972.43	303.166
1965.29	276.632
1958.15	267.637
1951	272.64
1943.84	277.634
1936.68	273.895
1929.51	289.336
1922.33	247.282
1915.15	262.718
1907.96	272.911
1900.77	251.825
1893.57	242.922
1886.36	272.175
1879.14	270.197
1871.92	240.536
1864.7	261.066
1857.46	245.284
1850.22	184.66
1842.98	213.805
1835.72	246.343
1828.46	215.141
1821.19	226.983
1813.92	214.752
1806.64	233.439
1799.36	219.508
1792.06	239.87
1784.76	188.299
1777.46	206.941
1770.14	215.297
1762.82	208.273
1755.5	221.729
1748.17	231.753
1740.83	245.162
1733.48	234.734
1726.13	226.024
1718.77	210.538
1711.4	239.184
1704.03	225.408
1696.65	237.056
1689.26	230.074
1681.87	216.343
1674.47	219.523
1667.06	194.017
1659.65	234.294
1652.23	217.24
1644.8	185.074
1637.37	196.672
1629.93	226.723
1622.48	204.703
1615.03	216.251
1607.57	269.648
1600.1	369.8
1592.63	498.188
1585.15	355.762
1577.66	265.326
1570.16	203.397
1562.66	244.853
1555.15	226.323
1547.64	261.03
1540.11	191.025
1532.59	230.68
1525.05	223.836
1517.51	202.096
1509.96	243.286
1502.4	248.023
1494.83	224.668
1487.26	193.103
1479.69	216.01
1472.1	197.69
1464.51	241.948
1456.91	233.503
1449.3	210.288
1441.69	201.888
1434.07	180.384
1426.45	167.111
1418.81	180.051
1411.17	225.674
1403.52	197.691
1395.87	210.567
1388.21	181.018
1380.54	161.3
1372.86	206.729
1365.18	193.527
1357.49	259.964
1349.79	220.765
1342.08	210.831
1334.37	204.154
1326.65	184.54
1318.93	182.752
1311.19	198.74
1303.45	169.499
1295.7	167.729
1287.95	174.019
1280.19	148.1
1272.42	175.304
1264.64	126.937
1256.86	166.952
1249.07	182.835
1241.27	144.209
1233.46	192.1
1225.65	174.328
1217.83	145.405
1210	169.215
1202.17	156.298
1194.33	159.339
1186.48	165.558
1178.62	168.585
1170.76	150.949
1162.88	161.921
1155.01	187.145
1147.12	185.386
1139.23	164.633
1131.33	170.806
1123.42	158.005
1115.5	183.115
1107.58	151.401
1099.65	152.835
1091.71	135.377
1083.77	154.122
1075.81	169.689
1067.85	142.845
1059.89	147.416
1051.91	120.642
1043.93	126.79
1035.94	165.767
1027.94	162.486
1019.93	146.725
1011.92	177.776
1003.9	143.333
999.086	203.979

File: Gr-alox-channel-outsidewafer.txt
2999.69	416.945
2993.45	462.734
2987.2	484.356
2980.96	443.948
2974.7	451.562
2968.44	463.155
2962.18	464.755
2955.91	498.239
2949.63	461.971
2943.35	395.921
2937.07	455.219
2930.77	381.342
2924.48	414.752
2918.18	418.363
2911.87	439.797
2905.56	417.648
2899.24	458.821
2892.91	411.005
2886.58	501.471
2880.25	406.356
2873.91	431.63
2867.56	439.137
2861.21	460.403
2854.86	418.725
2848.49	377.119
2842.13	429.782
2835.75	435.295
2829.38	385.944
2822.99	450.207
2816.6	441.998
2810.21	457.25
2803.81	441.238
2797.4	413.548
2790.99	440.479
2784.57	416.732
2778.15	377.46
2771.72	441.286
2765.29	413.713
2758.85	397.832
2752.41	434.329
2745.96	463.014
2739.5	462.615
2733.04	526.036
2726.57	548.769
2720.1	621.659
2713.62	736.859
2707.14	954.005
2700.65	1101.45
2694.16	1185.15
2687.66	1034.19
2681.15	877.725
2674.64	683.15
2668.12	513.836
2661.6	570.86
2655.07	467.011
2648.53	411.149
2641.99	384.043
2635.45	442.889
2628.9	352.859
2622.34	325.874
2615.78	350.343
2609.21	348.136
2602.63	366.841
2596.06	341.834
2589.47	383.281
2582.88	312.804
2576.28	314.426
2569.68	365.249
2563.07	387.621
2556.46	355.167
2549.84	315.219
2543.21	320.602
2536.58	363.661
2529.94	310.631
2523.3	331.05
2516.65	357.072
2509.99	339.861
2503.33	352.697
2496.67	320.524
2489.99	327.735
2483.32	379.84
2476.63	343.987
2469.94	347.422
2463.25	371.379
2456.55	335.627
2449.84	286.896
2443.12	353.653
2436.41	377.519
2429.68	377.188
2422.95	345.298
2416.21	337.576
2409.47	303.922
2402.72	296.249
2395.97	321.888
2389.21	310.516
2382.44	373.03
2375.67	311.815
2368.89	357.627
2362.1	296.533
2355.31	303.633
2348.52	296.011
2341.72	323.305
2334.91	323.02
2328.09	289.728
2321.27	289.473
2314.45	292.879
2307.61	310.909
2300.77	314.29
2293.93	273.848
2287.08	308.263
2280.22	318.925
2273.36	291.331
2266.49	301.989
2259.62	261.735
2252.74	257.871
2245.85	268.53
2238.96	295.484
2232.06	257.187
2225.15	309.437
2218.24	334.475
2211.32	308.889
2204.4	283.349
2197.47	286.704
2190.53	268.434
2183.59	277.195
2176.64	231.99
2169.69	282.094
2162.73	247.735
2155.76	261.863
2148.79	286.718
2141.81	298.996
2134.82	339.873
2127.83	253.784
2120.83	274.986
2113.83	231.924
2106.82	245.977
2099.8	245.758
2092.78	286.462
2085.75	282.651
2078.72	262.862
2071.67	259.078
2064.63	273.03
2057.57	274.558
2050.51	260.154
2043.44	233.399
2036.37	252.623
2029.29	270.047
2022.21	227.483
2015.11	241.375
2008.02	207.713
2000.91	228.632
1993.8	216.127
1986.68	198.378
1979.56	268.359
1972.43	217.298
1965.29	215.353
1958.15	223.906
1951	221.957
1943.84	214.773
1936.68	244.238
1929.51	228.331
1922.33	207.229
1915.15	208.782
1907.96	252.052
1900.77	230.984
1893.57	246.393
1886.36	234.036
1879.14	223.432
1871.92	219.77
1864.7	247.235
1857.46	219.374
1850.22	203.644
1842.98	215.53
1835.72	215.335
1828.46	203.093
1821.19	204.629
1813.92	180.392
1806.64	178.512
1799.36	204.074
1792.06	169.622
1784.76	190.01
1777.46	227.464
1770.14	174.288
1762.82	196.323
1755.5	191.028
1748.17	206.192
1740.83	194.087
1733.48	210.92
1726.13	185.238
1718.77	202.048
1711.4	171.33
1704.03	223.713
1696.65	201.498
1689.26	201.314
1681.87	185.92
1674.47	182.373
1667.06	205.827
1659.65	180.356
1652.23	207.136
1644.8	232.184
1637.37	206.758
1629.93	191.455
1622.48	209.737
1615.03	211.222
1607.57	244.525
1600.1	332.987
1592.63	489.829
1585.15	287.282
1577.66	233.62
1570.16	228.405
1562.66	204.877
1555.15	191.376
1547.64	156.286
1540.11	212.62
1532.59	214.084
1525.05	208.914
1517.51	182.218
1509.96	208.531
1502.4	186.844
1494.83	178.413
1487.26	153.492
1479.69	140.159
1472.1	113.672
1464.51	189.279
1456.91	185.816
1449.3	161.002
1441.69	154.288
1434.07	162.345
1426.45	165.472
1418.81	173.504
1411.17	143.908
1403.52	176.452
1395.87	166.495
1388.21	190.803
1380.54	140.119
1372.86	138.362
1365.18	180.517
1357.49	191.724
1349.79	214.272
1342.08	167.043
1334.37	181.47
1326.65	123.027
1318.93	139.085
1311.19	140.572
1303.45	138.828
1295.7	101.605
1287.95	146.627
1280.19	133.612
1272.42	152.788
1264.64	141.398
1256.86	80.2653
1249.07	166.797
1241.27	124.981
1233.46	132.869
1225.65	131.146
1217.83	150.198
1210	146.866
1202.17	102.072
1194.33	127.471
1186.48	125.761
1178.62	132.005
1170.76	127.115
1162.88	128.584
1155.01	157.011
1147.12	118.837
1139.23	113.977
1131.33	145.501
1123.42	134.305
1115.5	101.029
1107.58	119.859
1099.65	143.382
1091.71	116.487
1083.77	121.096
1075.81	105.27
1067.85	114.59
1059.89	112.914
1051.91	125.342
1043.93	118.964
1035.94	151.692
1027.94	95.3046
1019.93	127.994
1011.92	145.027
1003.9	127.753
999.086	177.508

File: Gr-baseline-channel-1.txt
2999.69	178.405
2993.45	206.327
2987.2	210.155
2980.96	219.974
2974.7	221.785
2968.44	227.585
2962.18	229.385
2955.91	167.408
2949.63	246.915
2943.35	181.049
2937.07	178.907
2930.77	158.892
2924.48	218.29
2918.18	228.018
2911.87	168.391
2905.56	211.793
2899.24	235.344
2892.91	233.166
2886.58	225.069
2880.25	207.123
2873.91	206.946
2867.56	191.015
2861.21	161.338
2854.86	218.209
2848.49	188.559
2842.13	233.535
2835.75	188.236
2829.38	205.706
2822.99	180.083
2816.6	201.441
2810.21	211.038
2803.81	193.286
2797.4	218.478
2790.99	222.188
2784.57	196.682
2778.15	223.752
2771.72	248.831
2765.29	213.655
2758.85	230.936
2752.41	257.883
2745.96	209.228
2739.5	303.893
2733.04	301.697
2726.57	392.254
2720.1	442.111
2713.62	669.345
2707.14	822.95
2700.65	953.18
2694.16	888.865
2687.66	711.246
2681.15	593.473
2674.64	412.577
2668.12	371.956
2661.6	243.286
2655.07	233.505
2648.53	218.004
2641.99	215.905
2635.45	221.445
2628.9	205.994
2622.34	196.286
2615.78	182.788
2609.21	211.165
2602.63	218.584
2596.06	161.422
2589.47	170.769
2582.88	195.265
2576.28	174.26
2569.68	151.399
2563.07	139.922
2556.46	162.47
2549.84	186.867
2543.21	167.845
2536.58	194.078
2529.94	169.435
2523.3	203.145
2516.65	240.554
2509.99	176.502
2503.33	178.224
2496.67	163.073
2489.99	149.822
2483.32	205.825
2476.63	190.689
2469.94	173.711
2463.25	220.215
2456.55	193.918
2449.84	186.296
2443.12	134.016
2436.41	156.215
2429.68	185.807
2422.95	181.931
2416.21	174.352
2409.47	166.787
2402.72	151.828
2395.97	146.145
2389.21	179.286
2382.44	145.888
2375.67	123.619
2368.89	175.127
2362.1	125.244
2355.31	141.695
2348.52	143.409
2341.72	209.413
2334.91	216.57
2328.09	115.525
2321.27	144.737
2314.45	177.558
2307.61	142.653
2300.77	193.69
2293.93	153.355
2287.08	184.228
2280.22	171.308
2273.36	169.336
2266.49	161.91
2259.62	154.496
2252.74	188.864
2245.85	161.481
2238.96	157.712
2232.06	184.74
2225.15	153.814
2218.24	159.102
2211.32	198.701
2204.4	137.162
2197.47	156.876
2190.53	158.538
2183.59	136.798
2176.64	142.071
2169.69	132.961
2162.73	163.361
2155.76	168.597
2148.79	150.527
2141.81	134.28
2134.82	141.315
2127.83	166.211
2120.83	174.991
2113.83	137.37
2106.82	171.114
2099.8	149.592
2092.78	131.666
2085.75	145.77
2078.72	158.072
2071.67	134.863
2064.63	170.201
2057.57	173.591
2050.51	146.89
2043.44	173.281
2036.37	151.927
2029.29	153.556
2022.21	148.129
2015.11	126.854
2008.02	146.103
2000.91	130.144
1993.8	179.227
1986.68	128.155
1979.56	114.009
1972.43	150.707
1965.29	171.582
1958.15	122.448
1951	148.554
1943.84	137.944
1936.68	174.455
1929.51	92.3783
1922.33	139.314
1915.15	154.847
1907.96	151.231
1900.77	144.148
1893.57	133.607
1886.36	130.02
1879.14	171.471
1871.92	154.012
1864.7	129.668
1857.46	150.28
1850.22	117.354
1842.98	153.457
1835.72	127.478
1828.46	139.411
1821.19	134.126
1813.92	128.851
1806.64	127.018
1799.36	102.894
1792.06	145.635
1784.76	148.927
1777.46	107.746
1770.14	104.231
1762.82	122.915
1755.5	104.042
1748.17	178.927
1740.83	148.119
1733.48	125.872
1726.13	115.561
1718.77	149.414
1711.4	130.618
1704.03	140.668
1696.65	174.406
1689.26	111.653
1681.87	167.328
1674.47	153.666
1667.06	160.275
1659.65	141.588
1652.23	143.143
1644.8	129.552
1637.37	176.501
1629.93	159.546
1622.48	134.232
1615.03	157.578
1607.57	184.232
1600.1	319.601
1592.63	406.241
1585.15	252.207
1577.66	228.614
1570.16	221.736
1562.66	173.229
1555.15	203.025
1547.64	146.31
1540.11	172.753
1532.59	162.638
1525.05	154.198
1517.51	159.026
1509.96	140.675
1502.4	150.467
1494.83	150.329
1487.26	161.744
1479.69	136.861
1472.1	130.146
1464.51	130.026
1456.91	108.53
1449.3	3750.68
1441.69	134.592
1434.07	90.1918
1426.45	131.067
1418.81	140.767
1411.17	184.791
1403.52	142.142
1395.87	128.952
1388.21	99.4786
1380.54	94.4989
1372.86	148.129
1365.18	134.981
1357.49	155.979
1349.79	116.876
1342.08	136.229
1334.37	106.938
1326.65	139.214
1318.93	103.505
1311.19	134.109
1303.45	132.371
1295.7	129.022
1287.95	130.514
1280.19	120.734
1272.42	127.055
1264.64	101.228
1256.86	109.161
1249.07	129.909
1241.27	86.5255
1233.46	80.0417
1225.65	113.553
1217.83	147.003
1210	111.746
1202.17	121.211
1194.33	86.0433
1186.48	122.577
1178.62	128.824
1170.76	88.9806
1162.88	87.3101
1155.01	111.018
1147.12	118.837
1139.23	68.0695
1131.33	118.615
1123.42	74.2625
1115.5	94.7145
1107.58	129.322
1099.65	103.991
1091.71	113.339
1083.77	91.2149
1075.81	83.2735
1067.85	89.4743
1059.89	114.482
1051.91	84.6061
1043.93	86.092
1035.94	92.2665
1027.94	79.6809
1019.93	117.068
1011.92	134.111
1003.9	135.543
999.086	129.238

File: Gr-baseline-channel-2.txt
2999.69	192.436
2993.45	206.327
2987.2	170.125
2980.96	191.978
2974.7	161.843
2968.44	211.614
2962.18	201.46
2955.91	239.155
2949.63	197.134
2943.35	210.893
2937.07	184.87
2930.77	186.699
2924.48	182.57
2918.18	182.414
2911.87	148.58
2905.56	182.102
2899.24	181.946
2892.91	191.671
2886.58	173.738
2880.25	181.479
2873.91	191.178
2867.56	224.491
2861.21	198.721
2854.86	220.175
2848.49	247.484
2842.13	198.21
2835.75	207.844
2829.38	209.624
2822.99	213.359
2816.6	211.22
2810.21	203.222
2803.81	205
2797.4	169.711
2790.99	204.647
2784.57	218.103
2778.15	245.154
2771.72	217.727
2765.29	211.713
2758.85	217.352
2752.41	236.554
2745.96	242.162
2739.5	294.215
2733.04	311.367
2726.57	372.931
2720.1	463.348
2713.62	522.745
2707.14	711.167
2700.65	887.709
2694.16	829.223
2687.66	718.935
2681.15	558.901
2674.64	408.739
2668.12	379.625
2661.6	256.696
2655.07	243.075
2648.53	149.161
2641.99	200.62
2635.45	181.355
2628.9	165.939
2622.34	200.098
2615.78	171.363
2609.21	209.262
2602.63	212.882
2596.06	146.229
2589.47	129.025
2582.88	176.307
2576.28	185.625
2569.68	181.678
2563.07	209.883
2556.46	179.473
2549.84	130.24
2543.21	162.187
2536.58	154.509
2529.94	133.665
2523.3	195.621
2516.65	221.761
2509.99	167.114
2503.33	185.729
2496.67	174.32
2489.99	164.804
2483.32	145.948
2476.63	173.863
2469.94	181.183
2463.25	164.228
2456.55	156.626
2449.84	113.641
2443.12	132.154
2436.41	159.934
2429.68	157.936
2422.95	135.52
2416.21	163.223
2409.47	166.787
2402.72	194.414
2395.97	155.394
2389.21	153.41
2382.44	190.208
2375.67	153.14
2368.89	169.596
2362.1	156.555
2355.31	167.458
2348.52	165.472
2341.72	148.794
2334.91	170.687
2328.09	139.363
2321.27	141.072
2314.45	170.236
2307.61	133.508
2300.77	137.045
2293.93	188.042
2287.08	151.395
2280.22	167.664
2273.36	171.157
2266.49	129.164
2259.62	114.509
2252.74	148.912
2245.85	194.14
2238.96	170.402
2232.06	139.461
2225.15	141.147
2218.24	139.214
2211.32	121.027
2204.4	131.748
2197.47	155.072
2190.53	174.752
2183.59	142.198
2176.64	183.434
2169.69	122.181
2162.73	157.976
2155.76	134.519
2148.79	141.567
2141.81	146.812
2134.82	157.415
2127.83	146.551
2120.83	148.206
2113.83	112.394
2106.82	137.248
2099.8	140.687
2092.78	174.368
2085.75	95.9946
2078.72	143.863
2071.67	134.863
2064.63	152.471
2057.57	180.677
2050.51	115.034
2043.44	155.599
2036.37	146.627
2029.29	165.911
2022.21	137.548
2015.11	123.33
2008.02	139.062
2000.91	140.696
1993.8	149.356
1986.68	168.533
1979.56	138.564
1972.43	150.707
1965.29	117.306
1958.15	122.448
1951	146.806
1943.84	162.389
1936.68	150.032
1929.51	141.182
1922.33	118.417
1915.15	135.709
1907.96	172.09
1900.77	147.621
1893.57	105.845
1886.36	105.749
1879.14	129.903
1871.92	150.551
1864.7	107.193
1857.46	95.0044
1850.22	143.241
1842.98	134.49
1835.72	113.697
1828.46	117.036
1821.19	79.1002
1813.92	108.235
1806.64	94.4053
1799.36	109.754
1792.06	149.062
1784.76	138.656
1777.46	140.241
1770.14	116.192
1762.82	131.451
1755.5	119.393
1748.17	115.876
1740.83	110.664
1733.48	144.583
1726.13	107.064
1718.77	134.133
1711.4	91.6024
1704.03	108.467
1696.65	106.675
1689.26	115.037
1681.87	106.481
1674.47	138.469
1667.06	128.22
1659.65	144.959
1652.23	144.827
1644.8	149.742
1637.37	136.158
1629.93	137.713
1622.48	169.467
1615.03	194.458
1607.57	184.232
1600.1	264.382
1592.63	361.103
1585.15	287.282
1577.66	191.902
1570.16	210.066
1562.66	186.554
1555.15	166.414
1547.64	142.985
1540.11	141.193
1532.59	116.17
1525.05	124.354
1517.51	163.996
1509.96	137.365
1502.4	127.318
1494.83	171.805
1487.26	150.191
1479.69	122.021
1472.1	103.787
1464.51	111.921
1456.91	147.995
1449.3	106.787
1441.69	139.516
1434.07	154.146
1426.45	142.536
1418.81	134.22
1411.17	135.732
1403.52	117.634
1395.87	137.114
1388.21	119.048
1380.54	107.533
1372.86	102.551
1365.18	133.355
1357.49	95.8619
1349.79	124.992
1342.08	115.146
1334.37	119.9
1326.65	108.458
1318.93	93.8018
1311.19	129.262
1303.45	111.385
1295.7	96.7668
1287.95	120.846
1280.19	125.563
1272.42	135.097
1264.64	106.049
1256.86	91.5025
1249.07	139.532
1241.27	116.97
1233.46	57.63
1225.65	126.348
1217.83	135.818
1210	110.149
1202.17	133.97
1194.33	127.471
1186.48	71.6359
1178.62	71.5691
1170.76	69.9133
1162.88	117.472
1155.01	117.362
1147.12	107.746
1139.23	98.1468
1131.33	109.126
1123.42	74.2625
1115.5	126.286
1107.58	83.5862
1099.65	102.415
1091.71	89.7263
1083.77	121.096
1075.81	89.5582
1067.85	89.4743
1059.89	106.641
1051.91	133.176
1043.93	98.6145
1035.94	111.033
1027.94	104.679
1019.93	132.677
1011.92	99.8038
1003.9	96.594
999.086	144.809

File: Gr-finished-channel-outer-2.txt
2999.69	150.341
2993.45	210.334
2987.2	170.125
2980.96	175.98
2974.7	209.797
2968.44	223.592
2962.18	211.434
2955.91	251.112
2949.63	230.985
2943.35	206.914
2937.07	240.53
2930.77	234.366
2924.48	226.228
2918.18	180.431
2911.87	188.201
2905.56	223.669
2899.24	189.857
2892.91	245.022
2886.58	209.275
2880.25	179.507
2873.91	197.091
2867.56	165.415
2861.21	177.078
2854.86	178.892
2848.49	172.846
2842.13	192.323
2835.75	176.471
2829.38	252.725
2822.99	213.359
2816.6	238.6
2810.21	187.59
2803.81	191.333
2797.4	161.908
2790.99	231.934
2784.57	184.998
2778.15	210.132
2771.72	174.959
2765.29	172.866
2758.85	205.708
2752.41	244.31
2745.96	201.479
2739.5	191.627
2733.04	259.15
2726.57	220.281
2720.1	279.939
2713.62	352.998
2707.14	497.239
2700.65	566.131
2694.16	708.014
2687.66	715.091
2681.15	606.917
2674.64	497.011
2668.12	394.964
2661.6	312.249
2655.07	239.247
2648.53	196.969
2641.99	244.565
2635.45	179.446
2628.9	253.677
2622.34	190.569
2615.78	196.116
2609.21	233.993
2602.63	201.478
2596.06	216.495
2589.47	195.435
2582.88	218.015
2576.28	238.66
2569.68	204.388
2563.07	158.83
2556.46	162.47
2549.84	167.991
2543.21	147.1
2536.58	186.541
2529.94	188.261
2523.3	191.859
2516.65	161.622
2509.99	182.136
2503.33	172.596
2496.67	163.073
2489.99	196.641
2483.32	160.917
2476.63	168.255
2469.94	183.05
2463.25	186.623
2456.55	210.699
2449.84	240.322
2443.12	180.549
2436.41	195.268
2429.68	195.097
2422.95	170.792
2416.21	131.692
2409.47	155.667
2402.72	175.898
2395.97	205.343
2389.21	181.134
2382.44	169.895
2375.67	158.675
2368.89	149.319
2362.1	143.662
2355.31	187.7
2348.52	150.763
2341.72	172.674
2334.91	185.369
2328.09	172.37
2321.27	128.248
2314.45	148.27
2307.61	153.626
2300.77	131.563
2293.93	189.868
2287.08	142.275
2280.22	147.617
2273.36	142.024
2266.49	154.633
2259.62	165.402
2252.74	177.968
2245.85	175.996
2238.96	166.776
2232.06	168.44
2225.15	168.291
2218.24	227.805
2211.32	173.412
2204.4	182.282
2197.47	173.104
2190.53	158.538
2183.59	116.998
2176.64	149.265
2169.69	147.336
2162.73	116.687
2155.76	143.487
2148.79	161.279
2141.81	164.716
2134.82	125.216
2127.83	176.934
2120.83	130.35
2113.83	165.915
2106.82	165.767
2099.8	167.4
2092.78	165.472
2085.75	113.771
2078.72	158.072
2071.67	165.029
2064.63	156.017
2057.57	143.479
2050.51	129.192
2043.44	118.468
2036.37	155.46
2029.29	141.201
2022.21	142.838
2015.11	176.186
2008.02	142.583
2000.91	145.972
1993.8	131.785
1986.68	136.933
1979.56	154.35
1972.43	140.193
1965.29	127.811
1958.15	157.434
1951	101.366
1943.84	143.182
1936.68	153.521
1929.51	144.668
1922.33	135.831
1915.15	130.489
1907.96	175.567
1900.77	144.148
1893.57	116.256
1886.36	142.155
1879.14	143.759
1871.92	141.899
1864.7	150.415
1857.46	126.097
1850.22	165.676
1842.98	162.078
1835.72	161.932
1828.46	113.594
1821.19	113.492
1813.92	120.261
1806.64	154.481
1799.36	149.197
1792.06	137.068
1784.76	114.691
1777.46	148.792
1770.14	126.444
1762.82	131.451
1755.5	127.921
1748.17	138.029
1740.83	132.796
1733.48	61.235
1726.13	67.9771
1718.77	122.248
1711.4	152.671
1704.03	133.889
1696.65	59.264
1689.26	155.638
1681.87	123.383
1674.47	99.6298
1667.06	114.723
1659.65	101.134
1652.23	107.778
1644.8	105.997
1637.37	99.1767
1629.93	129.316
1622.48	134.232
1615.03	164.284
1607.57	172.508
1600.1	192.43
1592.63	346.057
1585.15	275.59
1577.66	236.958
1570.16	200.063
1562.66	138.25
1555.15	113.161
1547.64	139.66
1540.11	111.293
1532.59	146.042
1525.05	86.2184
1517.51	157.37
1509.96	100.955
1502.4	115.744
1494.83	112.334
1487.26	118.832
1479.69	135.213
1472.1	128.499
1464.51	113.567
1456.91	115.107
1449.3	119.93
1441.69	108.33
1434.07	114.79
1426.45	104.854
1418.81	121.125
1411.17	99.7545
1403.52	151.944
1395.87	83.2475
1388.21	128.833
1380.54	127.085
1372.86	104.178
1365.18	105.708
1357.49	73.115
1349.79	139.602
1342.08	123.255
1334.37	137.723
1326.65	110.076
1318.93	105.123
1311.19	148.651
1303.45	88.7852
1295.7	125.797
1287.95	74.119
1280.19	120.734
1272.42	102.931
1264.64	96.408
1256.86	72.2388
1249.07	107.456
1241.27	105.753
1233.46	91.2475
1225.65	105.557
1217.83	78.2949
1210	79.8183
1202.17	121.211
1194.33	111.538
1186.48	113.025
1178.62	109.739
1170.76	115.993
1162.88	125.409
1155.01	103.088
1147.12	82.3936
1139.23	88.6487
1131.33	115.452
1123.42	94.8032
1115.5	94.7145
1107.58	119.859
1099.65	91.3861
1091.71	77.1332
1083.77	66.0522
1075.81	75.4175
1067.85	125.578
1059.89	87.8221
1051.91	103.407
1043.93	78.2655
1035.94	82.8835
1027.94	98.4293
1019.93	118.629
1011.92	95.1255
1003.9	99.7099
999.086	113.667